idx,t,px,py,pz,vx,vy,vz,ax,ay,az,yaw,mode
0,0.0,10.0,0.0,-0.0,-5.939600333301707,188.37072793038698,30.0,0.0,0.0,0.0,0.0,70
1,0.10033444816053512,9.980135115942135,0.6300024345497892,-0.10033444816053512,-11.867401719405962,187.9965316633637,30.0,0.0,0.0,0.0,3.612040133779264,70
2,0.20066889632107024,9.920619386492268,1.2575018840358776,-0.20066889632107024,-23.687654526966877,186.87542953538573,30.0,0.0,0.0,0.0,7.224080267558528,70
3,0.3010033444816054,9.821689266263427,1.8800053076961822,-0.3010033444816054,-35.4137968323721,185.01187565921097,30.0,0.0,0.0,0.0,10.836120401337793,70
4,0.4013377926421405,9.683737802329244,2.4950395138633756,-0.4013377926421405,-46.99924094415249,182.41327389117663,30.0,0.0,0.0,0.0,14.448160535117056,70
5,0.5016722408026756,9.507313072657055,3.1001609858980324,-0.5016722408026756,-58.397958161499744,179.0899484158494,30.0,0.0,0.0,0.0,18.06020066889632,70
6,0.6020066889632107,9.293116008606837,3.6929655902235723,-0.6020066889632107,-69.56466164522861,175.05510272828016,30.0,0.0,0.0,0.0,21.672240802675585,70
7,0.7023411371237458,9.041997610147165,4.271098127893217,-0.7023411371237458,-80.45498634133591,170.32476717682405,30.0,0.0,0.0,0.0,25.28428093645485,70
8,0.802675585284281,8.754955564852082,4.83226169174079,-0.802675585284281,-91.02566524233363,164.91773527493805,30.000000000000004,0.0,0.0,0.0,28.896321070234112,70
9,0.9030100334448161,8.433130284111488,5.374226791939626,-0.9030100334448161,-101.23470128606566,158.85548903498733,30.0,0.0,0.0,0.0,32.50836120401338,70
10,1.0033444816053512,8.077800372303148,5.894840213713949,-1.0033444816053512,-111.04153420906137,152.16211362070928,30.0,0.0,0.0,0.0,36.12040133779264,70
11,1.1036789297658862,7.690377546927132,6.392033572011259,-1.1036789297658862,-120.40720169152324,144.86420165741677,30.000000000000004,0.0,0.0,0.0,39.7324414715719,70
12,1.2040133779264215,7.272401029884932,6.863831529148175,-1.2040133779264215,-129.2944941537182,136.99074758011207,30.000000000000004,0.0,0.0,0.0,43.34448160535117,70
13,1.3043478260869565,6.8255314321865415,7.30835964278124,-1.3043478260869565,-137.66810258877643,128.5730324392715,30.0,0.0,0.0,0.0,46.95652173913044,70
14,1.4046822742474916,6.3515441563814115,7.7238518130229,-1.4046822742474916,-145.49475884455637,119.64449962195634,30.000000000000004,0.0,0.0,0.0,50.5685618729097,70
15,1.5050167224080269,5.852322342925294,8.108657299115396,-1.5050167224080269,-152.7433677972413,110.24062198201068,30.000000000000004,0.0,0.0,0.0,54.180602006688964,70
16,1.605351170568562,5.329849388506887,8.461247277785514,-1.605351170568562,-159.38513089154614,100.39876090723679,30.0,0.0,0.0,0.0,57.792642140468224,70
17,1.705685618729097,4.786201066058766,8.780220917224003,-1.705685618729097,-165.39366055670976,90.15801788346837,30.000000000000004,0.0,0.0,0.0,61.404682274247484,70
18,1.8060200668896322,4.2235372777596645,9.064310942557878,-1.8060200668896322,-170.74508504370007,79.5590791452716,30.000000000000004,0.0,0.0,0.0,65.01672240802677,70
19,1.9063545150501673,3.644093473793213,9.312388670704081,-1.9063545150501673,-175.41814326712165,68.64405403047994,30.0,0.0,0.0,0.0,68.62876254180603,70
20,2.0066889632107023,3.050171770956176,9.523468494601222,-2.0066889632107023,-179.39426927501395,57.456307680773044,30.0,0.0,0.0,0.0,72.24080267558529,70
21,2.1070234113712374,2.444131806401816,9.696711799003566,-2.1070234113712374,-182.65766601094742,46.04028875297214,30.0,0.0,0.0,0.0,75.85284280936455,70
22,2.2073578595317724,1.828381362856194,9.831430292279965,-2.2073578595317724,-185.19536807536335,34.441352825557615,30.000000000000004,0.0,0.0,0.0,79.4648829431438,70
23,2.307692307692308,1.20536680255323,9.92708874098054,-2.307692307692308,-186.99729323680523,22.705582202007687,30.000000000000004,0.0,0.0,0.0,83.07692307692308,70
24,2.408026755852843,0.5775633478942844,9.983307096306772,-2.408026755852843,-188.05628248839045,10.879602826875702,30.0,0.0,0.0,0.0,86.68896321070234,70
25,2.508361204013378,-0.05253475255305974,9.999862004036565,-2.508361204013378,-188.36812849037867,-0.9896009580063907,30.0,0.0,0.0,0.0,90.3010033444816,70
26,2.608695652173913,-0.682424133646709,9.976687691905392,-2.608695652173913,-187.9315922858351,-12.854873081229282,30.0,0.0,0.0,0.0,93.91304347826087,70
27,2.709030100334448,-1.3096022594817218,9.913876230917975,-2.709030100334448,-186.748408222978,-24.669073091785013,30.0,0.0,0.0,0.0,97.52508361204013,70
28,2.809364548494983,-1.9315773659074305,9.811677169552315,-2.809364548494983,-184.82327706465279,-36.385263446984375,30.000000000000004,0.0,0.0,0.0,101.1371237458194,70
29,2.9096989966555187,-2.545878360248632,9.670496542309383,-2.9096989966555187,-182.16384731231082,-47.956895994225626,30.000000000000004,0.0,0.0,0.0,104.74916387959867,70
30,3.0100334448160537,-3.1500646388994777,9.49089525654746,-3.0100334448160537,-178.7806848186902,-59.33799690572657,30.0,0.0,0.0,0.0,108.36120401337793,70
31,3.1103678929765888,-3.7417357837850203,9.273586864010209,-3.1103678929765888,-174.6872308099277,-70.48334933147594,30.0,0.0,0.0,0.0,111.97324414715719,70
32,3.210702341137124,-4.318541099166552,9.019434725902137,-3.210702341137124,-169.8997484838799,-81.34867304472975,30.0,0.0,0.0,0.0,115.58528428093645,70
33,3.311036789297659,-4.878188950901273,8.729448582774559,-3.311036789297659,-164.43725839681284,-91.89080036632453,30.0,0.0,0.0,0.0,119.19732441471572,70
34,3.411371237458194,-5.418455871051587,8.4047805428498,-3.411371237458194,-158.32146289517686,-102.06784766886695,30.0,0.0,0.0,0.0,122.80936454849497,70
35,3.511705685618729,-5.937195391671686,8.046720504721938,-3.511705685618729,-151.57665989268457,-111.8393817794135,30.000000000000004,0.0,0.0,0.0,126.42140468227424,70
36,3.6120401337792645,-6.432346572674897,7.656691032619608,-3.6120401337792645,-144.229646335262,-121.16658061952954,30.000000000000004,0.0,0.0,0.0,130.03344481605353,70
37,3.7123745819397995,-6.901942189900865,7.236241704591304,-3.7123745819397995,-136.3096117374088,-130.01238744450762,30.0,0.0,0.0,0.0,133.64548494983276,70
38,3.8127090301003346,-7.344116550851544,6.787042956067718,-3.8127090301003346,-127.84802221292829,-138.3416580689509,30.0,0.0,0.0,0.0,137.25752508361205,70
39,3.9130434782608696,-7.757112907044197,6.3108794432605295,-3.9130434782608696,-118.87849546078999,-146.1213004938116,30.0,0.0,0.0,0.0,140.86956521739128,70
40,4.013377926421405,-8.139290433532413,5.809642952764631,-4.013377926421405,-109.43666720279154,-153.3204063801334,29.999999999999932,0.0,0.0,0.0,144.48160535117057,70
41,4.113712374581939,-8.489130747865545,5.2853248855338855,-4.113712374581939,-99.56004960366081,-159.91037384716628,30.0,0.0,0.0,0.0,148.09364548494983,70
42,4.214046822742475,-8.805243942587,4.740008345091279,-4.214046822742475,-89.28788223609526,-165.8650211069744,30.0,0.0,0.0,0.0,151.7056856187291,70
43,4.314381270903009,-9.086374107304309,4.175859861406967,-4.314381270903009,-78.66097618285133,-171.1606904840733,30.0,0.0,0.0,0.0,155.31772575250835,70
44,4.414715719063545,-9.331404318392025,3.595120783324903,-4.414715719063545,-67.7215518952576,-175.7763424068262,30.000000000000007,0.0,0.0,0.0,158.9297658862876,70
45,4.51505016722408,-9.539361076503358,3.000098373735885,-4.51505016722408,-56.51307145233986,-179.69363899717365,30.000000000000007,0.0,0.0,0.0,162.5418060200669,70
46,4.615384615384616,-9.70941817426052,2.3931566428755766,-4.615384615384616,-45.08006588699139,-182.8970169265983,30.0,0.0,0.0,0.0,166.15384615384616,70
47,4.7157190635451505,-9.84089997875748,1.7767069561666662,-4.7157190635451505,-33.467958265209596,-185.37374924886763,30.0,0.0,0.0,0.0,169.76588628762542,70
48,4.816053511705686,-9.933284115833828,1.1531984539199411,-4.816053511705686,-21.722883221309694,-187.11399596389683,30.0,0.0,0.0,0.0,173.37792642140468,70
49,4.916387959866221,-9.986203545455204,0.5251083209566547,-4.916387959866221,-9.891503666090808,-188.1108431118408,30.0,0.0,0.0,0.0,176.98996655518394,70
50,5.016722408026756,-9.999448019954837,-0.10506805518936099,-5.016722408026756,1.9791746038248488,-188.36033024209596,30.0,0.0,0.0,0.0,180.6020066889632,70
51,5.117056856187291,-9.972964919342663,-0.7348269983884679,-5.117056856187291,13.841989658933695,-187.86146614807907,30.0,0.0,0.0,0.0,184.21404682274246,70
52,5.217391304347826,-9.906859460363307,-1.3616664909624643,-5.217391304347826,25.649810810101627,-186.6162328052677,30.0,0.0,0.0,0.0,187.82608695652175,70
53,5.317725752508361,-9.801394278472419,-1.983096114142766,-5.317725752508361,37.35572585769943,-184.6295774968579,30.0,0.0,0.0,0.0,191.43812709030098,70
54,5.418060200668896,-9.656988384392074,-2.596646942446463,-5.418060200668896,48.91322747268531,-181.90939315832273,30.0,0.0,0.0,0.0,195.05016722408027,70
55,5.518394648829431,-9.474215499390912,-3.199881352659974,-5.518394648829431,60.27639796914317,-178.46648701896208,30.0,0.0,0.0,0.0,198.6622073578595,70
56,5.618729096989966,-9.253801775902822,-3.7904027084595864,-5.618729096989966,71.40009173418436,-174.31453766503222,30.0,0.0,0.0,0.0,202.2742474916388,70
57,5.719063545150501,-8.99662291254018,-4.3658648821919614,-5.719063545150501,82.24011459042124,-169.47004069503913,30.000000000000007,0.0,0.0,0.0,205.88628762541802,70
58,5.819397993311037,-8.703700674963548,-4.923981575984936,-5.819397993311037,92.75339937840988,-163.9522431831089,30.000000000000007,0.0,0.0,0.0,209.49832775919734,70
59,5.919732441471572,-8.376198836430413,-5.462535405155904,-5.919732441471572,102.89817706147288,-157.7830672108057,30.0,0.0,0.0,0.0,213.1103678929766,70
60,6.0200668896321075,-8.01541855415102,-5.979386707829789,-6.0200668896321075,112.63414267311768,-150.9870227712158,30.0,0.0,0.0,0.0,216.72240802675586,70
61,6.120401337792642,-7.622793199820931,-6.472482045766043,-6.120401337792642,121.922615447731,-143.5911103913073,30.0,0.0,0.0,0.0,220.33444816053512,70
62,6.2207357859531776,-7.1998826648685395,-6.939862362621142,-6.2207357859531776,130.72669249836406,-135.62471385946603,30.0,0.0,0.0,0.0,223.94648829431438,70
63,6.321070234113712,-6.748367163042577,-7.3796707672340425,-6.321070234113712,139.01139543104716,-127.11948348438507,30.0,0.0,0.0,0.0,227.55852842809364,70
64,6.421404682274248,-6.27004055496187,-7.790159911011677,-6.421404682274248,146.7438093131387,-118.10921034912133,30.0,0.0,0.0,0.0,231.1705685618729,70
65,6.521739130434782,-5.766803221148673,-8.169698930104419,-6.521739130434782,153.89321344358788,-108.62969205990782,30.0,0.0,0.0,0.0,234.7826086956522,70
66,6.622073578595318,-5.240654511860948,-8.516779924790324,-6.622073578595318,160.43120340556547,-98.71859052309112,30.0,0.0,0.0,0.0,238.39464882943145,70
67,6.722408026755852,-4.693684803720142,-8.830023950325764,-6.722408026755852,166.3318039165611,-88.41528231525552,30.0,0.0,0.0,0.0,242.00668896321068,70
68,6.822742474916388,-4.128067194693316,-9.108186495460929,-6.822742474916388,171.57157202757017,-77.76070224099347,30.0,0.0,0.0,0.0,245.61872909698994,70
69,6.9230769230769225,-3.546048870425359,-9.350162426854148,-6.9230769230769225,176.1296902613876,-66.79718069987537,30.0,0.0,0.0,0.0,249.23076923076923,70
70,7.023411371237458,-2.949942176222497,-9.554990379741032,-7.023411371237458,179.9880493199662,-55.56827550875801,30.000000000000007,0.0,0.0,0.0,252.8428093645485,70
71,7.1237458193979935,-2.3421154301580227,-9.721856577414403,-7.1237458193979935,183.131320032237,-44.11859884758586,30.000000000000007,0.0,0.0,0.0,256.45484949832775,70
72,7.224080267558529,-1.7249835137995029,-9.85009806434027,-7.224080267558529,185.5470142565466,-32.49364001623284,30.0,0.0,0.0,0.0,260.06688963210706,70
73,7.3244147157190636,-1.1009982779403207,-9.93920534006479,-7.3244147157190636,187.22553449575878,-20.73958470657201,30.0,0.0,0.0,0.0,263.67892976588627,70
74,7.424749163879599,-0.4726388014532912,-9.988824383447774,-7.424749163879599,188.16021202788627,-8.903131507790306,30.0,0.0,0.0,0.0,267.2909698996655,70
75,7.525083612040134,0.15759845803216185,-9.998758059180444,-7.525083612040134,188.34733340076505,2.9686936260224437,30.0,0.0,0.0,0.0,270.90301003344484,70
76,7.625418060200669,0.7872095824983136,-9.968966900999463,-7.625418060200669,187.78615518551965,14.828724208898125,30.0,0.0,0.0,0.0,274.5150501672241,70
77,7.725752508361204,1.4136931415473426,-9.899569268485473,-7.725752508361204,186.478906930189,26.629840614346886,30.0,0.0,0.0,0.0,278.1270903010033,70
78,7.826086956521739,2.0345601305263328,-9.79084087682323,-7.826086956521739,184.4307823017787,38.32515728053887,30.0,0.0,0.0,0.0,281.73913043478257,70
79,7.926421404682274,2.647343859284992,-9.643213701391568,-7.926421404682274,181.6499184519418,49.86820898555569,30.0,0.0,0.0,0.0,285.3511705685619,70
80,8.02675585284281,3.249609752278451,-9.457274261535233,-8.02675585284281,178.1473636882699,61.21313545263752,30.0,0.0,0.0,0.0,288.96321070234114,70
81,8.127090301003344,3.8389650210794386,-9.233761290337137,-8.127090301003344,173.93703357962283,72.3148635520026,29.99999999999987,0.0,0.0,0.0,292.57525083612035,70
82,8.227424749163879,4.413068170871245,-8.973562799648928,-8.227424749163879,169.0356556698915,83.12928637534407,30.00000000000013,0.0,0.0,0.0,296.18729096989966,70
83,8.327759197324415,4.969638303152291,-8.677712552040521,-8.327759197324415,163.4627030198534,93.61343847155304,30.00000000000013,0.0,0.0,0.0,299.7993311036789,70
84,8.42809364548495,5.506464177693006,-8.347385953685363,-8.42809364548495,157.2403168411594,103.72566654746267,29.99999999999987,0.0,0.0,0.0,303.4113712374582,70
85,8.528428093645484,6.021412997741985,-7.9838953844989655,-8.528428093645484,150.39321852981217,113.42579495541499,29.99999999999987,0.0,0.0,0.0,307.0234113712374,70
86,8.628762541806019,6.512438883578037,-7.588684984083925,-8.628762541806019,142.94861144862912,122.67528531017564,30.00000000000013,0.0,0.0,0.0,310.6354515050167,70
87,8.729096989966555,6.977591000742848,-7.163324914196788,-8.729096989966555,134.93607284891323,131.43738960104525,30.00000000000013,0.0,0.0,0.0,314.24749163879596,70
88,8.82943143812709,7.415021310661068,-6.709505120531784,-8.82943143812709,126.38743636072282,139.67729619085517,29.99999999999987,0.0,0.0,0.0,317.8595317725752,70
89,8.929765886287624,7.822991912854706,-6.229028618605784,-8.929765886287624,117.33666551859774,147.36226812179643,29.999999999999883,0.0,0.0,0.0,321.4715719063545,70
90,9.03010033444816,8.19988194958146,-5.7238043304194255,-9.03010033444816,107.81971882522116,154.46177317859042,29.999999999999883,0.0,0.0,0.0,325.0836120401338,70
91,9.130434782608695,8.544194045464886,-5.195839500354335,-9.130434782608695,97.87440688912069,160.94760519227054,30.00000000000013,0.0,0.0,0.0,328.69565217391306,70
92,9.230769230769232,8.8545602565321,-4.647231720437683,-9.230769230769232,87.54024220400333,166.79399610264318,30.00000000000013,0.0,0.0,0.0,332.3076923076923,70
93,9.331103678929766,9.129747505023436,-4.080160596657726,-9.331103678929766,76.85828216652978,171.9777183341892,29.99999999999987,0.0,0.0,0.0,335.9197324414716,70
94,9.431438127090301,9.368662478381797,-3.496879089439763,-9.431438127090301,65.87096595623132,176.47817707868754,30.00000000000013,0.0,0.0,0.0,339.53177257525084,70
95,9.531772575250837,9.570355972958094,-2.8997045626865727,-9.531772575250837,54.621945925633504,180.2774921179049,30.00000000000013,0.0,0.0,0.0,343.1438127090301,70
96,9.632107023411372,9.734026665175332,-2.2910095769454166,-9.632107023411372,43.15591417046971,183.36056886128804,29.99999999999987,0.0,0.0,0.0,346.75585284280936,70
97,9.732441471571907,9.859024295168593,-1.6732124632799645,-9.732441471571907,31.518424969024267,185.71515831642722,29.99999999999987,0.0,0.0,0.0,350.3678929765887,70
98,9.832775919732441,9.944852250252417,-1.048767715297075,-9.832775919732441,19.755713796039974,187.33190575401883,29.99999999999987,0.0,0.0,0.0,353.9799331103679,70
99,9.933110367892976,9.99116953795147,-0.42015623750057507,-9.933110367892976,7.91451363024758,188.20438787398328,30.00000000000013,0.0,0.0,0.0,357.59197324414714,70
100,10.033444816053512,9.997792140755745,0.2101245112847523,-10.033444816053512,-3.9581307146725324,188.32913832508683,30.00000000000013,0.0,0.0,0.0,361.2040133779264,70
101,10.133779264214047,9.964693747217874,0.8395704402592021,-10.133779264214047,-15.81504949804602,187.70566147667995,29.99999999999987,0.0,0.0,0.0,364.8160535117057,70
102,10.234113712374581,9.892005856487879,1.4656807753428114,-10.234113712374581,-27.609135456490186,186.33643438782664,30.00000000000013,0.0,0.0,0.0,368.4280936454849,70
103,10.334448160535118,9.780017255870114,2.0859679946928242,-10.334448160535118,-39.293530959977765,184.22689696600062,30.00000000000013,0.0,0.0,0.0,372.0401337792642,70
104,10.434782608695652,9.629172873477994,2.6979677115702394,-10.434782608695652,-50.82181417611668,181.38543035445926,29.99999999999987,0.0,0.0,0.0,375.6521739130435,70
105,10.535117056856187,9.440072010544919,3.299248465291213,-10.535117056856187,-62.14818350301169,177.82332363416117,29.99999999999987,0.0,0.0,0.0,379.26421404682276,70
106,10.635451505016722,9.213465960414371,3.887421381363959,-10.635451505016722,-73.22763953796773,173.55472897250917,29.99999999999987,0.0,0.0,0.0,382.87625418060196,70
107,10.735785953177256,8.95025502366888,4.460149662431742,-10.735785953177256,-84.01616385907403,168.5966053971116,30.00000000000013,0.0,0.0,0.0,386.4882943143812,70
108,10.836120401337793,8.651484931256686,5.015157872314537,-10.836120401337793,-94.47089390937045,162.96865141796013,30.00000000000013,0.0,0.0,0.0,390.10033444816054,70
109,10.936454849498327,8.318342689826938,5.55024097626425,-10.936454849498327,-104.55029328879525,156.69322676571088,29.99999999999987,0.0,0.0,0.0,393.7123745819398,70
110,11.036789297658862,7.952151865779795,6.063273101516616,-11.036789297658862,-114.2143167773417,149.79526355699184,30.00000000000013,0.0,0.0,0.0,397.324414715719,70
111,11.137123745819398,7.554367326767797,6.552215983334429,-11.137123745819398,-123.42456943378268,142.30216723967857,30.00000000000013,0.0,0.0,0.0,400.93645484949826,70
112,11.237458193979933,7.126569461540447,7.015127062986037,-11.237458193979933,-132.14445913788416,134.2437077116845,29.99999999999987,0.0,0.0,0.0,404.5484949832776,70
113,11.337792642140467,6.670457901096332,7.4501672054861645,-11.337792642140467,-140.33934197005186,125.65190104585133,29.99999999999987,0.0,0.0,0.0,408.16053511705684,70
114,11.438127090301002,6.187844766088595,7.855608006436547,-11.438127090301002,-147.97665985082244,116.56088229083386,29.99999999999987,0.0,0.0,0.0,411.77257525083604,70
115,11.538461538461537,5.680647467311567,8.229838658936558,-11.538461538461537,-155.0260698933524,107.00676985333902,30.00000000000015,0.0,0.0,0.0,415.38461538461536,70
116,11.638795986622075,5.150881087872183,8.57137235328163,-11.638795986622075,-161.45956495500567,97.02752200053493,30.00000000000015,0.0,0.0,0.0,418.9966555183947,70
117,11.73913043478261,4.600650377311521,8.878852184023753,-11.73913043478261,-167.25158490908666,86.66278605273853,29.99999999999987,0.0,0.0,0.0,422.60869565217394,70
118,11.839464882943144,4.032141389483645,9.151056540925365,-11.839464882943144,-172.3791181946234,75.95374086552732,29.99999999999987,0.0,0.0,0.0,426.2207357859532,70
119,11.939799331103679,3.447612797414375,9.386903962388484,-11.939799331103679,-176.82179324077475,64.94293322710618,30.00000000000013,0.0,0.0,0.0,429.83277591973246,70
120,12.040133779264215,2.849386919645687,9.585457432076577,-12.040133779264215,-180.56195940260093,53.67410882089846,30.00000000000013,0.0,0.0,0.0,433.4448160535117,70
121,12.14046822742475,2.2398404937180483,9.745928101658707,-12.14046822742475,-183.5847570866671,42.19203842496253,29.99999999999987,0.0,0.0,0.0,437.056856187291,70
122,12.240802675585284,1.6213952334472457,9.86767842488569,-12.240802675585284,-185.87817678786854,30.542340038731712,29.99999999999987,0.0,0.0,0.0,440.66889632107024,70
123,12.341137123745819,0.9965082075115707,9.950224690546545,-12.341137123745819,-187.43310680291557,18.771297643755755,30.00000000000013,0.0,0.0,0.0,444.2809364548495,70
124,12.441471571906355,0.3676620775749015,9.993238944241916,-12.441471571906355,-188.24336943091484,6.925677318518279,30.00000000000013,0.0,0.0,0.0,447.89297658862876,70
125,12.54180602006689,-0.26264476527046754,9.99655029133931,-12.54180602006689,-188.30574551723143,-4.947458562110291,29.99999999999987,0.0,0.0,0.0,451.505016722408,70
126,12.642140468227424,-0.891908126553736,9.960145575933486,-12.642140468227424,-187.61998724312076,-16.800938304595334,29.99999999999987,0.0,0.0,0.0,455.1170568561873,70
127,12.742474916387959,-1.517627957532144,9.884169433114591,-12.742474916387959,-186.18881911030692,-28.587668308783726,30.00000000000013,0.0,0.0,0.0,458.72909698996654,70
128,12.842809364548495,-2.137318287826691,9.768923714336271,-12.842809364548495,-184.017927116595,-40.260820169684486,30.00000000000013,0.0,0.0,0.0,462.3411371237458,70
129,12.94314381270903,-2.748517102124752,9.61486628816687,-12.94314381270903,-181.1159361655337,-51.774016725635626,29.99999999999987,0.0,0.0,0.0,465.95317725752506,70
130,13.043478260869565,-3.3487961217098587,9.422609221188207,-13.043478260869565,-177.49437579988052,-63.08151631369437,29.99999999999987,0.0,0.0,0.0,469.5652173913044,70
131,13.1438127090301,-3.935770451956728,9.192916346269248,-13.1438127090301,-173.16763439498973,-74.13839450020005,30.00000000000013,0.0,0.0,0.0,473.17725752508363,70
132,13.244147157190636,-4.507108057462298,8.926700227875832,-13.244147157190636,-168.15290199413042,-84.90072256450755,30.00000000000013,0.0,0.0,0.0,476.7892976588629,70
133,13.34448160535117,-5.060539027168302,8.625018536473211,-13.34448160535117,-162.47010201285227,-95.32574202678173,29.99999999999987,0.0,0.0,0.0,480.4013377926421,70
134,13.444816053511705,-5.593864592665322,8.289069846425788,-13.444816053511705,-156.1418120837052,-105.37203452643878,29.99999999999987,0.0,0.0,0.0,484.01337792642136,70
135,13.54515050167224,-6.104965863848603,7.920188874089006,-13.54515050167224,-149.19317435583045,-114.99968637633306,30.00000000000013,0.0,0.0,0.0,487.6254180602006,70
136,13.645484949832776,-6.591812247219371,7.519841175012189,-13.645484949832776,-141.6517956057948,-124.1704471389157,30.00000000000013,0.0,0.0,0.0,491.2374581939799,70
137,13.74581939799331,-7.052469513385692,7.08961732132034,-13.74581939799331,-133.54763755649967,-132.8478815943329,29.99999999999987,0.0,0.0,0.0,494.8494983277592,70
138,13.846153846153845,-7.485107481711007,6.631226582407956,-13.846153846153845,-124.91289783995241,-140.99751449670933,29.99999999999987,0.0,0.0,0.0,498.46153846153845,70
139,13.94648829431438,-7.888007291579353,6.146490134051382,-13.94648829431438,-115.78188207682045,-148.5869675435009,30.00000000000013,0.0,0.0,0.0,502.0735785953177,70
140,14.046822742474916,-8.259568231388736,5.637333822919657,-14.046822742474916,-106.19086758099621,-155.58608801373876,30.00000000000015,0.0,0.0,0.0,505.685618729097,70
141,14.147157190635452,-8.598314098141206,5.105780515230379,-14.147157190635452,-96.17795923067276,-161.9670685640958,29.999999999999883,0.0,0.0,0.0,509.2976588628763,70
142,14.247491638795987,-8.90289906236314,4.553942059949108,-14.247491638795987,-85.78293807854226,-167.70455770681104,29.99999999999987,0.0,0.0,0.0,512.9096989966555,70
143,14.347826086956522,-9.172113015054531,3.9840108984624125,-14.347826086956522,-75.04710330259631,-172.77576053056052,30.00000000000013,0.0,0.0,0.0,516.5217391304349,70
144,14.448160535117058,-9.404886375423985,3.398251354059072,-14.448160535117058,-64.01310812545314,-177.16052926412007,30.00000000000013,0.0,0.0,0.0,520.1337792642141,70
145,14.548494983277592,-9.600294340308398,2.7989906358261587,-14.548494983277592,-52.724790354090516,-180.84144332298482,29.99999999999987,0.0,0.0,0.0,523.7458193979934,70
146,14.648829431438127,-9.75756055839449,2.1886095927013147,-14.648829431438127,-41.226998213257104,-183.8038785209585,29.99999999999987,0.0,0.0,0.0,527.3578595317725,70
147,14.749163879598662,-9.876060214644566,1.5695332544150657,-14.749163879598662,-29.565412164511695,-186.0360651716937,30.00000000000013,0.0,0.0,0.0,530.9698996655518,70
148,14.849498327759198,-9.95532251267216,0.9442211969040332,-14.849498327759198,-17.786363418811383,-187.529134849383,30.00000000000013,0.0,0.0,0.0,534.581939799331,70
149,14.949832775919733,-9.995032545205177,0.3151577704727052,-14.949832775919733,-5.936649863686124,-188.27715562282143,29.99999999999987,0.0,0.0,0.0,538.1939799331103,70
150,15.050167224080267,-9.995032545205177,-0.3151577704726979,-15.050167224080267,5.936649863686124,-188.27715562282143,29.99999999999987,0.0,0.0,0.0,541.8060200668897,70
151,15.150501672240802,-9.95532251267216,-0.944221196904026,-15.150501672240802,17.786363418811383,-187.52913484938307,30.00000000000013,0.0,0.0,0.0,545.418060200669,70
152,15.250836120401338,-9.876060214644566,-1.5695332544150586,-15.250836120401338,29.56541216451143,-186.03606517169374,30.00000000000013,0.0,0.0,0.0,549.0301003344482,70
153,15.351170568561873,-9.757560558394491,-2.1886095927013076,-15.351170568561873,41.226998213256834,-183.8038785209584,29.99999999999987,0.0,0.0,0.0,552.6421404682275,70
154,15.451505016722408,-9.6002943403084,-2.7989906358261507,-15.451505016722408,52.724790354090516,-180.84144332298482,29.99999999999987,0.0,0.0,0.0,556.2541806020066,70
155,15.551839464882942,-9.404886375423986,-3.398251354059065,-15.551839464882942,64.01310812545314,-177.16052926412013,30.00000000000013,0.0,0.0,0.0,559.8662207357859,70
156,15.652173913043478,-9.172113015054533,-3.984010898462405,-15.652173913043478,75.04710330259604,-172.77576053056052,30.00000000000013,0.0,0.0,0.0,563.4782608695651,70
157,15.752508361204013,-8.902899062363144,-4.553942059949101,-15.752508361204013,85.78293807854199,-167.70455770681124,29.99999999999987,0.0,0.0,0.0,567.0903010033445,70
158,15.852842809364548,-8.59831409814121,-5.105780515230372,-15.852842809364548,96.17795923067355,-161.96706856409742,29.99999999999987,0.0,0.0,0.0,570.7023411371238,70
159,15.953177257525082,-8.259568231388739,-5.6373338229196515,-15.953177257525082,106.1908675809971,-155.58608801374004,30.00000000000013,0.0,0.0,0.0,574.314381270903,70
160,16.05351170568562,-7.888007291579356,-6.146490134051375,-16.05351170568562,115.78188207682032,-148.58696754350103,30.00000000000013,0.0,0.0,0.0,577.9264214046823,70
161,16.153846153846153,-7.485107481711012,-6.631226582407952,-16.153846153846153,124.91289783995029,-140.99751449670734,29.99999999999987,0.0,0.0,0.0,581.5384615384615,70
162,16.254180602006688,-7.052469513385709,-7.08961732132032,-16.254180602006688,133.54763755649756,-132.84788159433117,29.99999999999987,0.0,0.0,0.0,585.1505016722407,70
163,16.354515050167223,-6.59181224721939,-7.519841175012173,-16.354515050167223,141.6517956057944,-124.17044713891623,29.99999999999987,0.0,0.0,0.0,588.76254180602,70
164,16.454849498327757,-6.104965863848624,-7.92018887408899,-16.454849498327757,149.19317435583017,-114.99968637633332,29.99999999999987,0.0,0.0,0.0,592.3745819397993,70
165,16.55518394648829,-5.5938645926653425,-8.289069846425773,-16.55518394648829,156.14181208370493,-105.37203452643931,30.000000000000398,0.0,0.0,0.0,595.9866220735786,70
166,16.65551839464883,-5.060539027168324,-8.625018536473199,-16.65551839464883,162.47010201285426,-95.32574202678332,30.000000000000398,0.0,0.0,0.0,599.5986622073578,70
167,16.755852842809364,-4.507108057462305,-8.926700227875829,-16.755852842809364,168.15290199413266,-84.90072256450888,29.99999999999987,0.0,0.0,0.0,603.2107023411371,70
168,16.8561872909699,-3.935770451956735,-9.192916346269245,-16.8561872909699,173.16763439498968,-74.13839450020005,29.99999999999987,0.0,0.0,0.0,606.8227424749164,70
169,16.956521739130434,-3.3487961217098663,-9.422609221188203,-16.956521739130434,177.49437579987793,-63.08151631369384,29.99999999999987,0.0,0.0,0.0,610.4347826086956,70
170,17.05685618729097,-2.7485171021247763,-9.614866288166862,-17.05685618729097,181.11593616553117,-51.77401672563536,29.99999999999987,0.0,0.0,0.0,614.0468227424748,70
171,17.157190635451503,-2.1373182878267154,-9.768923714336266,-17.157190635451503,184.01792711659496,-40.26082016968475,29.99999999999987,0.0,0.0,0.0,617.6588628762541,70
172,17.257525083612038,-1.5176279575321687,-9.884169433114586,-17.257525083612038,186.18881911030812,-28.58766830878426,29.99999999999987,0.0,0.0,0.0,621.2709030100334,70
173,17.357859531772572,-0.8919081265537522,-9.960145575933485,-17.357859531772572,187.61998724312204,-16.80093830459613,30.000000000000398,0.0,0.0,0.0,624.8829431438127,70
174,17.45819397993311,-0.2626447652704838,-9.99655029133931,-17.45819397993311,188.30574551723143,-4.947458562110822,30.000000000000398,0.0,0.0,0.0,628.4949832775919,70
175,17.558528428093645,0.3676620775748852,-9.993238944241918,-17.558528428093645,188.24336943091484,6.925677318518013,29.99999999999987,0.0,0.0,0.0,632.1070234113712,70
176,17.65886287625418,0.9965082075115546,-9.950224690546547,-17.65886287625418,187.43310680291694,18.771297643755755,29.99999999999987,0.0,0.0,0.0,635.7190635451504,70
177,17.759197324414714,1.6213952334472383,-9.867678424885693,-17.759197324414714,185.87817678786735,30.542340038731183,29.99999999999987,0.0,0.0,0.0,639.3311036789297,70
178,17.85953177257525,2.2398404937180243,-9.745928101658713,-17.85953177257525,183.58475708666455,42.192038424962,29.99999999999987,0.0,0.0,0.0,642.943143812709,70
179,17.959866220735783,2.8493869196456627,-9.585457432076582,-17.959866220735783,180.5619594026004,53.674108820897835,29.9999999999999,0.0,0.0,0.0,646.5551839464882,70
180,18.06020066889632,3.4476127974143673,-9.386903962388487,-18.06020066889632,176.8217932407756,64.94293322710617,29.9999999999999,0.0,0.0,0.0,650.1672240802676,70
181,18.160535117056856,4.0321413894836455,-9.151056540925364,-18.160535117056856,172.37911819462465,75.95374086552785,29.99999999999987,0.0,0.0,0.0,653.7792642140469,70
182,18.26086956521739,4.6006503773115215,-8.878852184023753,-18.26086956521739,167.25158490908666,86.66278605273826,30.000000000000398,0.0,0.0,0.0,657.3913043478261,70
183,18.36120401337793,5.150881087872184,-8.57137235328163,-18.36120401337793,161.45956495500607,97.02752200053494,30.000000000000398,0.0,0.0,0.0,661.0033444816054,70
184,18.461538461538463,5.6806474673115614,-8.229838658936563,-18.461538461538463,155.0260698933525,107.00676985333924,29.99999999999987,0.0,0.0,0.0,664.6153846153846,70
185,18.561872909698998,6.187844766088588,-7.855608006436552,-18.561872909698998,147.97665985082338,116.5608822908348,29.99999999999987,0.0,0.0,0.0,668.2274247491639,70
186,18.662207357859533,6.6704579010963325,-7.450167205486164,-18.662207357859533,140.33934197005306,125.65190104585213,29.99999999999987,0.0,0.0,0.0,671.8394648829432,70
187,18.762541806020067,7.126569461540448,-7.0151270629860365,-18.762541806020067,132.14445913788254,134.2437077116825,29.99999999999987,0.0,0.0,0.0,675.4515050167225,70
188,18.862876254180602,7.554367326767787,-6.552215983334442,-18.862876254180602,123.42456943378122,142.30216723967658,29.99999999999987,0.0,0.0,0.0,679.0635451505017,70
189,18.963210702341136,7.952151865779786,-6.063273101516629,-18.963210702341136,114.21431677734263,149.79526355699292,30.000000000000398,0.0,0.0,0.0,682.6755852842809,70
190,19.063545150501675,8.318342689826935,-5.550240976264256,-19.063545150501675,104.55029328879604,156.69322676571196,30.000000000000398,0.0,0.0,0.0,686.2876254180602,70
191,19.16387959866221,8.651484931256682,-5.015157872314543,-19.16387959866221,94.47089390937045,162.96865141796002,29.99999999999987,0.0,0.0,0.0,689.8996655518395,70
192,19.264214046822744,8.950255023668877,-4.460149662431748,-19.264214046822744,84.0161638590743,168.59660539711132,29.99999999999987,0.0,0.0,0.0,693.5117056856187,70
193,19.36454849498328,9.21346596041437,-3.887421381363966,-19.36454849498328,73.22763953796826,173.55472897251036,29.99999999999987,0.0,0.0,0.0,697.123745819398,70
194,19.464882943143813,9.440072010544919,-3.2992484652912113,-19.464882943143813,62.14818350301196,177.8233236341625,29.99999999999987,0.0,0.0,0.0,700.7357859531774,70
195,19.565217391304348,9.629172873477994,-2.6979677115702376,-19.565217391304348,50.821814176116156,181.3854303544566,29.99999999999987,0.0,0.0,0.0,704.3478260869566,70
196,19.665551839464882,9.78001725587011,-2.08596799469284,-19.665551839464882,39.2935309599775,184.22689696599792,29.99999999999987,0.0,0.0,0.0,707.9598662207358,70
197,19.765886287625417,9.892005856487877,-1.4656807753428276,-19.765886287625417,27.609135456490453,186.3364343878279,29.99999999999987,0.0,0.0,0.0,711.571906354515,70
198,19.86622073578595,9.964693747217872,-0.8395704402592096,-19.86622073578595,15.815049498046287,187.70566147668129,30.000000000000398,0.0,0.0,0.0,715.1839464882943,70
199,19.96655518394649,9.997792140755745,-0.21012451128475965,-19.96655518394649,3.958130714672798,188.32913832508683,30.000000000000398,0.0,0.0,0.0,718.7959866220735,70
200,20.066889632107024,9.99116953795147,0.4201562375005677,-20.066889632107024,-7.91451363024758,188.20438787398328,29.99999999999987,0.0,0.0,0.0,722.4080267558528,70
201,20.16722408026756,9.944852250252417,1.0487677152970676,-20.16722408026756,-19.755713796039974,187.33190575402017,29.99999999999987,0.0,0.0,0.0,726.0200668896322,70
202,20.267558528428093,9.859024295168593,1.6732124632799659,-20.267558528428093,-31.518424969024267,185.7151583164285,29.99999999999987,0.0,0.0,0.0,729.6321070234114,70
203,20.367892976588628,9.734026665175332,2.291009576945418,-20.367892976588628,-43.15591417046891,183.36056886128546,29.99999999999987,0.0,0.0,0.0,733.2441471571907,70
204,20.468227424749163,9.5703559729581,2.8997045626865567,-20.468227424749163,-54.6219459256327,180.27749211790245,29.99999999999987,0.0,0.0,0.0,736.8561872909698,70
205,20.568561872909697,9.368662478381802,3.496879089439748,-20.568561872909697,-65.87096595623159,176.47817707868901,30.000000000000398,0.0,0.0,0.0,740.4682274247491,70
206,20.668896321070235,9.12974750502344,4.08016059665772,-20.668896321070235,-76.85828216653003,171.97771833419054,30.000000000000398,0.0,0.0,0.0,744.0802675585284,70
207,20.76923076923077,8.854560256532103,4.647231720437677,-20.76923076923077,-87.54024220400333,166.7939961026433,29.99999999999987,0.0,0.0,0.0,747.6923076923076,70
208,20.869565217391305,8.54419404546489,5.19583950035433,-20.869565217391305,-97.87440688912069,160.94760519227054,29.99999999999987,0.0,0.0,0.0,751.304347826087,70
209,20.96989966555184,8.199881949581464,5.723804330419419,-20.96989966555184,-107.81971882522113,154.46177317859076,29.99999999999987,0.0,0.0,0.0,754.9163879598663,70
210,21.070234113712374,7.822991912854715,6.229028618605772,-21.070234113712374,-117.33666551859872,147.3622681217979,29.99999999999987,0.0,0.0,0.0,758.5284280936455,70
211,21.17056856187291,7.415021310661071,6.709505120531779,-21.17056856187291,-126.3874363607215,139.67729619085424,29.99999999999987,0.0,0.0,0.0,762.1404682274248,70
212,21.270903010033443,6.9775910007428665,7.16332491419677,-21.270903010033443,-134.9360728489108,131.43738960104338,29.99999999999987,0.0,0.0,0.0,765.7525083612039,70
213,21.371237458193978,6.5124388835780564,7.588684984083908,-21.371237458193978,-142.94861144862887,122.67528531017604,29.99999999999987,0.0,0.0,0.0,769.3645484949832,70
214,21.471571906354512,6.021412997742005,7.98389538449895,-21.471571906354512,-150.39321852981283,113.42579495541591,30.000000000000398,0.0,0.0,0.0,772.9765886287624,70
215,21.57190635451505,5.506464177693021,8.347385953685352,-21.57190635451505,-157.2403168411603,103.7256665474636,30.000000000000398,0.0,0.0,0.0,776.5886287625417,70
216,21.672240802675585,4.969638303152305,8.677712552040513,-21.672240802675585,-163.4627030198534,93.61343847155383,29.99999999999987,0.0,0.0,0.0,780.2006688963211,70
217,21.77257525083612,4.41306817087126,8.973562799648922,-21.77257525083612,-169.0356556698915,83.12928637534434,29.99999999999987,0.0,0.0,0.0,783.8127090301003,70
218,21.872909698996654,3.838965021079453,9.23376129033713,-21.872909698996654,-173.93703357962409,72.31486355200315,29.99999999999987,0.0,0.0,0.0,787.4247491638796,70
219,21.97324414715719,3.2496097522784577,9.45727426153523,-21.97324414715719,-178.14736368826846,61.21313545263752,29.99999999999987,0.0,0.0,0.0,791.0367892976589,70
220,22.073578595317723,2.647343859285016,9.643213701391561,-22.073578595317723,-181.64991845193907,49.86820898555516,29.99999999999987,0.0,0.0,0.0,794.648829431438,70
221,22.173913043478258,2.0345601305263576,9.790840876823225,-22.173913043478258,-184.43078230177855,38.32515728053939,30.000000000000398,0.0,0.0,0.0,798.2608695652173,70
222,22.274247491638796,1.4136931415473675,9.89956926848547,-22.274247491638796,-186.4789069301903,26.62984061434742,30.000000000000398,0.0,0.0,0.0,801.8729096989965,70
223,22.37458193979933,0.7872095824983296,9.968966900999462,-22.37458193979933,-187.78615518552093,14.828724208898656,29.99999999999987,0.0,0.0,0.0,805.4849498327759,70
224,22.474916387959865,0.1575984580321781,9.998758059180444,-22.474916387959865,-188.34733340076502,2.9686936260227093,29.99999999999987,0.0,0.0,0.0,809.0969899665552,70
225,22.5752508361204,-0.472638801453275,9.988824383447774,-22.5752508361204,-188.16021202788627,-8.903131507789775,29.99999999999987,0.0,0.0,0.0,812.7090301003344,70
226,22.675585284280935,-1.1009982779403045,9.939205340064794,-22.675585284280935,-187.22553449576006,-20.739584706571744,29.99999999999987,0.0,0.0,0.0,816.3210702341137,70
227,22.77591973244147,-1.7249835137994953,9.850098064340271,-22.77591973244147,-185.54701425654534,-32.493640016232305,29.99999999999987,0.0,0.0,0.0,819.9331103678929,70
228,22.876254180602004,-2.3421154301579983,9.72185657741441,-22.876254180602004,-183.1313200322353,-44.11859884758525,29.99999999999987,0.0,0.0,0.0,823.5451505016721,70
229,22.97658862876254,-2.949942176222473,9.554990379741039,-22.97658862876254,-179.98804931996705,-55.56827550875798,29.99999999999987,0.0,0.0,0.0,827.1571906354513,70
230,23.076923076923073,-3.5460488704253357,9.350162426854157,-23.076923076923073,-176.1296902613872,-66.7971806998748,30.00000000000043,0.0,0.0,0.0,830.7692307692307,70
231,23.177257525083615,-4.128067194693309,9.108186495460933,-23.177257525083615,-171.5715720275699,-77.76070224099298,30.00000000000043,0.0,0.0,0.0,834.3812709030101,70
232,23.27759197324415,-4.693684803720136,8.830023950325767,-23.27759197324415,-166.3318039165623,-88.41528231525605,29.99999999999987,0.0,0.0,0.0,837.9933110367894,70
233,23.377926421404684,-5.240654511860949,8.516779924790324,-23.377926421404684,-160.43120340556652,-98.71859052309165,29.99999999999987,0.0,0.0,0.0,841.6053511705686,70
234,23.47826086956522,-5.766803221148674,8.169698930104419,-23.47826086956522,-153.89321344358774,-108.62969205990795,29.99999999999987,0.0,0.0,0.0,845.2173913043479,70
235,23.578595317725753,-6.27004055496187,7.790159911011676,-23.578595317725753,-146.74380931313922,-118.10921034912185,29.99999999999987,0.0,0.0,0.0,848.8294314381271,70
236,23.678929765886288,-6.748367163042581,7.379670767234039,-23.678929765886288,-139.0113954310477,-127.11948348438561,29.99999999999987,0.0,0.0,0.0,852.4414715719064,70
237,23.779264214046822,-7.199882664868543,6.939862362621137,-23.779264214046822,-130.72669249836258,-135.62471385946472,29.99999999999987,0.0,0.0,0.0,856.0535117056857,70
238,23.879598662207357,-7.622793199820926,6.472482045766048,-23.879598662207357,-121.92261544772968,-143.5911103913057,30.000000000000398,0.0,0.0,0.0,859.6655518394649,70
239,23.979933110367895,-8.015418554151015,5.9793867078297955,-23.979933110367895,-112.63414267311822,-150.9870227712162,30.000000000000398,0.0,0.0,0.0,863.2775919732442,70
240,24.08026755852843,-8.376198836430412,5.462535405155907,-24.08026755852843,-102.8981770614734,-157.78306721080625,29.99999999999987,0.0,0.0,0.0,866.8896321070234,70
241,24.180602006688964,-8.703700674963546,4.923981575984938,-24.180602006688964,-92.75339937841,-163.9522431831089,29.99999999999987,0.0,0.0,0.0,870.5016722408027,70
242,24.2809364548495,-8.996622912540177,4.3658648821919686,-24.2809364548495,-82.24011459042185,-169.4700406950399,29.99999999999987,0.0,0.0,0.0,874.113712374582,70
243,24.381270903010034,-9.253801775902822,3.7904027084595886,-24.381270903010034,-71.40009173418461,-174.3145376650329,29.99999999999987,0.0,0.0,0.0,877.7257525083612,70
244,24.48160535117057,-9.47421549939091,3.1998813526599768,-24.48160535117057,-60.27639796914317,-178.46648701896268,29.99999999999987,0.0,0.0,0.0,881.3377926421405,70
245,24.581939799331103,-9.656988384392074,2.596646942446461,-24.581939799331103,-48.91322747268504,-181.90939315832077,29.99999999999987,0.0,0.0,0.0,884.9498327759198,70
246,24.682274247491637,-9.801394278472415,1.9830961141427819,-24.682274247491637,-37.35572585769943,-184.62957749685594,30.000000000000398,0.0,0.0,0.0,888.561872909699,70
247,24.782608695652176,-9.906859460363307,1.3616664909624756,-24.782608695652176,-25.64981081010189,-186.6162328052683,30.000000000000398,0.0,0.0,0.0,892.1739130434783,70
248,24.88294314381271,-9.972964919342662,0.7348269983884796,-24.88294314381271,-13.841989658933695,-187.86146614807967,29.99999999999987,0.0,0.0,0.0,895.7859531772575,70
249,24.983277591973245,-9.999448019954837,0.10506805518936835,-24.983277591973245,-1.9791746038251143,-188.3603302420966,29.99999999999987,0.0,0.0,0.0,899.3979933110368,70
250,25.08361204013378,-9.986203545455204,-0.5251083209566474,-25.08361204013378,9.891503666090808,-188.11084311184146,29.99999999999987,0.0,0.0,0.0,903.010033444816,70
251,25.183946488294314,-9.933284115833828,-1.1531984539199382,-25.183946488294314,21.722883221309694,-187.11399596389754,29.99999999999987,0.0,0.0,0.0,906.6220735785953,70
252,25.28428093645485,-9.84089997875748,-1.7767069561666635,-25.28428093645485,33.467958265209596,-185.37374924886834,29.99999999999987,0.0,0.0,0.0,910.2341137123746,70
253,25.384615384615383,-9.70941817426052,-2.3931566428755784,-25.384615384615383,45.08006588699086,-182.8970169265964,29.99999999999987,0.0,0.0,0.0,913.8461538461539,70
254,25.484949832775918,-9.539361076503361,-3.0000983737358693,-25.484949832775918,56.51307145233903,-179.69363899717186,30.000000000000398,0.0,0.0,0.0,917.4581939799331,70
255,25.585284280936456,-9.331404318392032,-3.5951207833248877,-25.585284280936456,67.72155189525736,-175.77634240682698,30.000000000000398,0.0,0.0,0.0,921.0702341137123,70
256,25.68561872909699,-9.086374107304316,-4.175859861406952,-25.68561872909699,78.6609761828516,-171.16069048407397,29.99999999999987,0.0,0.0,0.0,924.6822742474916,70
257,25.785953177257525,-8.805243942587005,-4.740008345091268,-25.785953177257525,89.28788223609526,-165.86502110697495,29.99999999999987,0.0,0.0,0.0,928.2943143812709,70
258,25.88628762541806,-8.489130747865552,-5.285324885533874,-25.88628762541806,99.56004960366081,-159.91037384716708,29.99999999999987,0.0,0.0,0.0,931.9063545150501,70
259,25.986622073578594,-8.139290433532418,-5.809642952764626,-25.986622073578594,109.43666720279207,-153.32040638013433,29.99999999999987,0.0,0.0,0.0,935.5183946488294,70
260,26.08695652173913,-7.757112907044201,-6.310879443260524,-26.08695652173913,118.87849546079052,-146.12130049381213,29.99999999999987,0.0,0.0,0.0,939.1304347826087,70
261,26.187290969899664,-7.344116550851545,-6.787042956067716,-26.187290969899664,127.84802221292856,-138.34165806895143,29.99999999999987,0.0,0.0,0.0,942.742474916388,70
262,26.2876254180602,-6.901942189900867,-7.236241704591302,-26.2876254180602,136.3096117374093,-130.01238744450802,30.000000000000398,0.0,0.0,0.0,946.3545150501673,70
263,26.387959866220736,-6.432346572674895,-7.656691032619609,-26.387959866220736,144.22964633526257,-121.16658061953032,30.000000000000398,0.0,0.0,0.0,949.9665551839465,70
264,26.48829431438127,-5.937195391671686,-8.04672050472194,-26.48829431438127,151.57665989268475,-111.83938177941386,29.99999999999987,0.0,0.0,0.0,953.5785953177258,70
265,26.588628762541806,-5.418455871051586,-8.404780542849801,-26.588628762541806,158.32146289517303,-102.06784766886456,29.99999999999987,0.0,0.0,0.0,957.190635451505,70
266,26.68896321070234,-4.878188950901299,-8.729448582774545,-26.68896321070234,164.43725839680874,-91.89080036632214,29.99999999999987,0.0,0.0,0.0,960.8026755852842,70
267,26.789297658862875,-4.318541099166579,-9.019434725902123,-26.789297658862875,169.89974848387996,-81.34867304473028,29.99999999999987,0.0,0.0,0.0,964.4147157190635,70
268,26.88963210702341,-3.7417357837850456,-9.273586864010198,-26.88963210702341,174.6872308099282,-70.483349331477,29.99999999999987,0.0,0.0,0.0,968.0267558528427,70
269,26.989966555183944,-3.1500646388995013,-9.490895256547454,-26.989966555183944,178.78068481869064,-59.3379969057271,29.99999999999987,0.0,0.0,0.0,971.638795986622,70
270,27.09030100334448,-2.545878360248654,-9.670496542309376,-27.09030100334448,182.16384731231136,-47.956895994225995,30.000000000000398,0.0,0.0,0.0,975.2508361204012,70
271,27.190635451505017,-1.9315773659074529,-9.81167716955231,-27.190635451505017,184.82327706465344,-36.385263446984986,30.000000000000398,0.0,0.0,0.0,978.8628762541805,70
272,27.29096989966555,-1.3096022594817422,-9.913876230917971,-27.29096989966555,186.74840822297858,-24.669073091785542,29.99999999999987,0.0,0.0,0.0,982.4749163879598,70
273,27.391304347826086,-0.6824241336467273,-9.97668769190539,-27.391304347826086,187.93159228583573,-12.854873081229814,29.99999999999987,0.0,0.0,0.0,986.086956521739,70
274,27.49163879598662,-0.05253475255307598,-9.999862004036565,-27.49163879598662,188.36812849037926,-0.9896009580066563,29.99999999999987,0.0,0.0,0.0,989.6989966555184,70
275,27.591973244147155,0.5775633478942703,-9.983307096306772,-27.591973244147155,188.0562824883911,10.879602826875438,29.99999999999987,0.0,0.0,0.0,993.3110367892976,70
276,27.69230769230769,1.2053668025532183,-9.927088740980542,-27.69230769230769,186.99729323680603,22.705582202007204,29.99999999999987,0.0,0.0,0.0,996.9230769230769,70
277,27.792642140468224,1.8283813628561827,-9.831430292279968,-27.792642140468224,185.19536807536417,34.44135282555742,29.99999999999987,0.0,0.0,0.0,1000.5351170568562,70
278,27.89297658862876,2.444131806401807,-9.69671179900357,-27.89297658862876,182.65766601094813,46.04028875297241,30.000000000000398,0.0,0.0,0.0,1004.1471571906354,70
279,27.993311036789297,3.0501717709561693,-9.523468494601223,-27.993311036789297,179.39426927501455,57.456307680773314,30.000000000000398,0.0,0.0,0.0,1007.7591973244147,70
280,28.093645484949832,3.644093473793208,-9.312388670704083,-28.093645484949832,175.41814326712225,68.64405403047994,29.99999999999987,0.0,0.0,0.0,1011.371237458194,70
281,28.193979933110366,4.223537277759662,-9.06431094255788,-28.193979933110366,170.74508504369777,79.55907914527035,29.9999999999999,0.0,0.0,0.0,1014.9832775919732,70
282,28.294314381270905,4.786201066058763,-8.780220917224005,-28.294314381270905,165.39366055670746,90.15801788346724,29.9999999999999,0.0,0.0,0.0,1018.5953177257526,70
283,28.39464882943144,5.3298493885068865,-8.461247277785514,-28.39464882943144,159.38513089154682,100.39876090723733,29.99999999999987,0.0,0.0,0.0,1022.2073578595318,70
284,28.494983277591974,5.852322342925296,-8.108657299115395,-28.494983277591974,152.74336779724186,110.24062198201094,29.99999999999987,0.0,0.0,0.0,1025.819397993311,70
285,28.59531772575251,6.351544156381413,-7.7238518130228995,-28.59531772575251,145.49475884455666,119.6444996219566,29.99999999999987,0.0,0.0,0.0,1029.4314381270904,70
286,28.695652173913043,6.825531432186544,-7.308359642781237,-28.695652173913043,137.66810258877672,128.57303243927214,29.99999999999987,0.0,0.0,0.0,1033.0434782608697,70
287,28.795986622073578,7.272401029884936,-6.86383152914817,-28.795986622073578,129.29449415371874,136.9907475801126,30.000000000000398,0.0,0.0,0.0,1036.6555183946489,70
288,28.896321070234116,7.690377546927137,-6.392033572011254,-28.896321070234116,120.4072016915239,144.8642016574173,30.000000000000398,0.0,0.0,0.0,1040.2675585284283,70
289,28.99665551839465,8.077800372303155,-5.894840213713941,-28.99665551839465,111.04153420906164,152.16211362071022,29.99999999999987,0.0,0.0,0.0,1043.8795986622074,70
290,29.096989966555185,8.433130284111495,-5.3742267919396145,-29.096989966555185,101.23470128606306,158.8554890349833,29.99999999999987,0.0,0.0,0.0,1047.4916387959868,70
291,29.19732441471572,8.754955564852072,-4.832261691740809,-29.19732441471572,91.02566524233134,164.91773527493385,29.99999999999987,0.0,0.0,0.0,1051.1036789297657,70
292,29.297658862876254,9.041997610147156,-4.271098127893235,-29.297658862876254,80.45498634133648,170.32476717682454,29.99999999999987,0.0,0.0,0.0,1054.715719063545,70
293,29.39799331103679,9.29311600860683,-3.692965590223589,-29.39799331103679,69.56466164522945,175.05510272828064,29.99999999999987,0.0,0.0,0.0,1058.3277591973244,70
294,29.498327759197323,9.507313072657052,-3.1001609858980474,-29.498327759197323,58.39795816150032,179.08994841584993,30.000000000000398,0.0,0.0,0.0,1061.9397993311036,70
295,29.59866220735786,9.68373780232924,-2.49503951386339,-29.59866220735786,46.99924094415252,182.41327389117714,30.000000000000398,0.0,0.0,0.0,1065.551839464883,70
296,29.698996655518396,9.821689266263423,-1.8800053076961944,-29.698996655518396,35.41379683237239,185.01187565921157,29.99999999999987,0.0,0.0,0.0,1069.163879598662,70
297,29.79933110367893,9.920619386492266,-1.2575018840358885,-29.79933110367893,23.687654526967428,186.8754295353863,29.99999999999987,0.0,0.0,0.0,1072.7759197324415,70
298,29.899665551839465,9.980135115942135,-0.6300024345497984,-29.899665551839465,11.867401719406233,187.99653166336435,29.99999999999987,0.0,0.0,0.0,1076.3879598662206,70
299,30.0,10.0,-7.347880794884118e-15,-30.0,5.93960033330171,188.37072793038766,29.99999999999987,0.0,0.0,0.0,1080.0,70
