# ts wx wy wz ax ay az
1654544051.461638 -0.004261 0.003196 0.001065 -0.152984 8.681828 3.939331
1654544051.466640 0.001065 -0.001065 0.002131 -0.152984 8.681828 3.939331
1654544051.471642 -0.001065 -0.001065 0.003196 -0.152984 8.681828 3.939331
1654544051.476644 -0.005326 0.002131 -0.001065 -0.152984 8.681828 3.939331
1654544051.481645 -0.003196 -0.004261 0.001065 -0.152984 8.681828 3.939331
1654544051.486647 0.003196 -0.002131 0.001065 -0.152984 8.681828 3.939331
1654544051.491649 -0.003196 -0.004261 0.000000 -0.140587 8.681828 3.939331
1654544051.496650 -0.003196 -0.001065 0.002131 -0.134573 8.681828 3.939331
1654544051.501652 0.001065 0.001065 0.000000 -0.128560 8.681828 3.939331
1654544051.506653 0.001065 0.000000 0.002131 -0.133861 8.681828 3.939331
1654544051.511655 0.001065 -0.004261 -0.002131 -0.133861 8.681828 3.939331
1654544051.516657 -0.001065 -0.004261 0.002131 -0.133861 8.681828 3.939331
1654544051.521658 0.002131 -0.003196 -0.001065 -0.133861 8.681828 3.939331
1654544051.526660 -0.002131 0.002131 0.002131 -0.150106 8.681828 3.939331
1654544051.531662 -0.001065 -0.001065 0.000000 -0.156119 8.681828 3.939331
1654544051.536664 -0.001065 -0.001065 0.001065 -0.162132 8.681828 3.939331
1654544051.541665 -0.006392 -0.007457 -0.001065 -0.137822 8.681828 3.939331
1654544051.546667 -0.001065 0.001065 0.000000 -0.131809 8.681828 3.939331
1654544051.551669 0.001065 -0.001065 0.002131 -0.125795 8.681828 3.939331
1654544051.556670 -0.003196 0.000000 0.001065 -0.133861 8.681828 3.939331
1654544051.561672 0.000000 0.001065 0.002131 -0.133861 8.681828 3.939331
1654544051.566674 0.003196 -0.007457 0.001065 -0.133861 8.681828 3.939331
1654544051.571675 -0.001065 -0.008522 -0.001065 -0.133861 8.681828 3.939331
1654544051.576677 -0.005326 0.002131 0.001065 -0.133861 8.681828 3.939331
1654544051.581679 0.003196 -0.002131 0.003196 -0.133861 8.681828 3.939331
1654544051.586680 -0.003196 0.000000 0.002131 -0.133861 8.681828 3.939331
1654544051.591682 0.000000 -0.001065 -0.001065 -0.133861 8.681828 3.939331
1654544051.596684 -0.001065 -0.001065 0.002131 -0.133861 8.681828 3.939331
1654544051.601685 0.001065 0.002131 0.003196 -0.133861 8.681828 3.939331
1654544051.606687 -0.005326 0.003196 0.001065 -0.133861 8.681828 3.939331
1654544051.611689 0.003196 -0.002131 0.000000 -0.133861 8.681828 3.939331
1654544051.616690 0.001065 -0.001065 0.002131 -0.133861 8.681828 3.939331
1654544051.621692 -0.001065 -0.001065 0.001065 -0.149629 8.681828 3.939331
1654544051.626694 -0.003196 -0.001065 0.002131 -0.155643 8.681828 3.939331
1654544051.631696 0.000000 -0.004261 -0.001065 -0.161657 8.681828 3.939331
1654544051.636697 -0.001065 0.002131 0.000000 -0.138297 8.681828 3.954018
1654544051.641699 0.000000 -0.005326 0.006392 -0.132283 8.681828 3.960032
1654544051.646700 -0.002131 0.001065 0.001065 -0.126269 8.681828 3.966046
1654544051.651702 0.001065 0.000000 0.001065 -0.133861 8.681828 3.944850
1654544051.656704 -0.005326 -0.002131 0.003196 -0.133861 8.681828 3.938837
1654544051.661706 -0.004261 0.000000 0.000000 -0.133861 8.681828 3.932823
1654544051.666707 -0.001065 0.001065 0.000000 -0.133861 8.681828 3.939331
1654544051.671709 -0.002131 0.001065 0.000000 -0.133861 8.681828 3.939331
1654544051.676711 -0.002131 0.001065 -0.001065 -0.133861 8.681828 3.939331
1654544051.681712 -0.004261 0.000000 0.004261 -0.133861 8.670386 3.939331
1654544051.686714 0.002131 0.000000 -0.001065 -0.133861 8.664372 3.939331
1654544051.691715 -0.004261 -0.003196 0.003196 -0.133861 8.658358 3.939331
1654544051.696717 -0.002131 0.000000 -0.001065 -0.133861 8.652344 3.939331
1654544051.701719 -0.001065 -0.002131 0.000000 -0.150234 8.679077 3.939331
1654544051.706721 -0.003196 -0.004261 -0.001065 -0.156247 8.685091 3.939331
1654544051.711722 -0.001065 -0.005326 0.001065 -0.162261 8.691106 3.939331
1654544051.716724 -0.003196 0.007457 0.002131 -0.152984 8.681828 3.954623
1654544051.721726 0.005326 0.000000 0.002131 -0.152984 8.681828 3.960637
1654544051.726727 -0.005326 0.001065 0.002131 -0.152984 8.681828 3.966651
1654544051.731729 0.000000 -0.001065 0.000000 -0.138774 8.681828 3.944245
1654544051.736731 -0.002131 -0.002131 0.003196 -0.132761 8.681828 3.938231
1654544051.741732 -0.003196 0.003196 0.001065 -0.126747 8.681828 3.932218
1654544051.746734 -0.002131 0.001065 0.004261 -0.146987 8.681828 3.939331
1654544051.751735 -0.002131 -0.002131 0.001065 -0.153000 8.681828 3.939331
1654544051.756737 -0.001065 0.000000 0.000000 -0.159014 8.681828 3.939331
1654544051.761739 0.000000 0.000000 -0.002131 -0.152984 8.681828 3.939331
1654544051.766741 -0.001065 -0.001065 0.000000 -0.152984 8.681828 3.939331
1654544051.771743 0.001065 -0.003196 0.004261 -0.152984 8.681828 3.939331
1654544051.776744 0.002131 0.001065 0.003196 -0.152984 8.681828 3.939331
1654544051.781746 -0.003196 0.000000 0.000000 -0.152984 8.698802 3.939331
1654544051.786747 -0.001065 -0.001065 -0.002131 -0.152984 8.704815 3.939331
1654544051.791749 -0.002131 0.004261 0.002131 -0.152984 8.710829 3.939331
1654544051.796751 0.001065 0.000000 0.005326 -0.152984 8.685056 3.955226
1654544051.801753 -0.002131 -0.001065 -0.005326 -0.152984 8.679042 3.961240
1654544051.806754 0.004261 0.000000 0.005326 -0.152984 8.673028 3.967254
1654544051.811756 -0.001065 0.004261 0.002131 -0.138170 8.681828 3.928826
1654544051.816757 -0.003196 0.002131 0.003196 -0.132155 8.681828 3.916798
1654544051.821759 -0.002131 -0.003196 -0.002131 -0.126141 8.681828 3.904770
1654544051.826761 -0.003196 0.002131 0.000000 -0.133861 8.695656 3.934038
1654544051.831762 0.002131 0.000000 0.003196 -0.133861 8.701712 3.940093
1654544051.836654 0.001065 0.001065 0.001065 -0.133861 8.707635 3.946017
1654544051.841656 -0.001065 0.001065 0.001065 -0.133861 8.700950 3.951984
1654544051.846658 0.002131 0.000000 0.000000 -0.133861 8.700950 3.957998
1654544051.851660 -0.001065 -0.001065 0.003196 -0.133861 8.700950 3.964012
1654544051.856661 0.001065 -0.005326 0.002131 -0.133861 8.689378 3.946882
1654544051.861663 -0.004261 -0.001065 -0.001065 -0.133861 8.683363 3.940867
1654544051.866664 0.001065 -0.005326 -0.001065 -0.133861 8.677349 3.934853
1654544051.871666 -0.001065 -0.003196 0.005326 -0.133861 8.671335 3.928839
1654544051.876667 -0.001065 -0.002131 0.002131 -0.133861 8.681828 3.955835
1654544051.881669 -0.002131 -0.003196 0.003196 -0.133861 8.681828 3.961848
1654544051.886671 -0.002131 -0.002131 0.000000 -0.133861 8.681828 3.967862
1654544051.891673 -0.001065 0.001065 0.002131 -0.149283 8.681828 3.943032
1654544051.896674 0.000000 -0.002131 0.000000 -0.155296 8.681828 3.937019
1654544051.901676 -0.004261 0.004261 -0.001065 -0.161310 8.681828 3.931005
1654544051.906678 -0.001065 -0.005326 0.001065 -0.138644 8.681828 3.939331
1654544051.911679 -0.002131 -0.003196 0.000000 -0.132630 8.681828 3.939331
1654544051.916681 -0.003196 0.000000 0.000000 -0.126616 8.681828 3.939331
1654544051.921683 -0.004261 0.000000 0.000000 -0.133861 8.681828 3.939331
1654544051.926684 -0.001065 -0.001065 0.002131 -0.133861 8.681828 3.939331
1654544051.931686 0.001065 -0.008522 -0.001065 -0.133861 8.681828 3.939331
1654544051.936688 -0.003196 -0.001065 0.002131 -0.146037 8.694003 3.951507
1654544051.941689 0.001065 -0.003196 -0.001065 -0.152051 8.700017 3.957521
1654544051.946691 -0.002131 -0.005326 0.004261 -0.158064 8.706030 3.963535
1654544051.951693 0.001065 0.002131 0.000000 -0.164078 8.712044 3.969549
1654544051.956694 0.001065 -0.001065 0.001065 -0.135876 8.683843 3.941347
1654544051.961696 -0.005326 -0.002131 0.000000 -0.129863 8.677830 3.935333
1654544051.966697 -0.003196 -0.002131 -0.001065 -0.123849 8.671816 3.929320
1654544051.971699 0.000000 0.003196 0.001065 -0.133861 8.681828 3.955357
1654544051.976701 0.002131 0.001065 -0.002131 -0.133861 8.681828 3.961371
1654544051.981703 0.000000 -0.003196 0.001065 -0.133861 8.681828 3.967385
1654544051.986705 -0.002131 0.001065 0.000000 -0.133861 8.681828 3.943510
1654544051.991706 -0.004261 0.001065 0.003196 -0.133861 8.681828 3.937496
1654544051.996708 0.001065 -0.001065 0.003196 -0.133861 8.681828 3.931483
1654544052.001709 -0.003196 -0.002131 -0.002131 -0.133861 8.681828 3.953193
1654544052.006711 -0.001065 0.001065 0.000000 -0.133861 8.681828 3.959207
1654544052.011713 -0.003196 0.002131 0.000000 -0.133861 8.681828 3.965220
1654544052.016715 0.000000 -0.001065 0.000000 -0.146642 8.681828 3.932892
1654544052.021716 -0.001065 0.000000 0.002131 -0.152656 8.681828 3.920864
1654544052.026718 -0.004261 0.001065 0.001065 -0.158670 8.681828 3.908835
1654544052.031719 0.002131 -0.004261 0.003196 -0.141282 8.681828 3.943611
1654544052.036721 0.000000 0.000000 0.004261 -0.135267 8.681828 3.955641
1654544052.041723 -0.004261 -0.006392 0.002131 -0.129253 8.681828 3.967670
1654544052.046724 0.001065 -0.003196 0.001065 -0.123238 8.681828 3.979699
1654544052.051726 -0.004261 -0.003196 -0.001065 -0.133861 8.681828 3.941819
1654544052.056728 -0.005326 0.001065 0.000000 -0.133861 8.681828 3.935804
1654544052.061729 0.000000 0.001065 -0.001065 -0.133861 8.681828 3.929790
1654544052.066731 0.000000 -0.003196 0.003196 -0.133861 8.666273 3.923778
1654544052.071733 0.001065 -0.004261 0.002131 -0.133861 8.660259 3.917764
1654544052.076735 -0.003196 -0.005326 -0.001065 -0.133861 8.654245 3.911750
1654544052.081736 -0.001065 0.000000 0.002131 -0.133861 8.691647 3.934680
1654544052.086738 0.001065 0.001065 0.001065 -0.133861 8.703674 3.940694
1654544052.091740 -0.005326 -0.002131 0.003196 -0.133861 8.715702 3.946707
1654544052.096741 -0.001065 0.001065 0.001065 -0.133861 8.687561 3.939331
1654544052.101743 -0.004261 -0.001065 0.001065 -0.133861 8.681547 3.939331
1654544052.106745 0.000000 0.000000 0.002131 -0.133861 8.675534 3.939331
1654544052.111746 0.002131 0.000000 -0.001065 -0.146168 8.681828 3.939331
1654544052.116748 0.002131 -0.003196 0.002131 -0.152181 8.681828 3.939331
1654544052.121750 -0.005326 -0.001065 -0.001065 -0.158194 8.681828 3.939331
1654544052.126751 0.001065 0.002131 0.004261 -0.141761 8.681828 3.939331
1654544052.131753 -0.001065 -0.001065 -0.002131 -0.135747 8.681828 3.939331
1654544052.136755 -0.004261 -0.004261 0.002131 -0.129733 8.681828 3.939331
1654544052.141756 0.002131 0.004261 0.002131 -0.123720 8.681828 3.939331
1654544052.146758 -0.006392 0.000000 0.003196 -0.133861 8.681828 3.939331
1654544052.151760 -0.004261 -0.004261 -0.001065 -0.133861 8.681828 3.939331
1654544052.156761 0.000000 -0.001065 0.004261 -0.133861 8.681828 3.939331
1654544052.161763 0.000000 -0.007457 0.001065 -0.133861 8.681828 3.939331
1654544052.166765 0.000000 -0.001065 -0.001065 -0.133861 8.681828 3.939331
1654544052.171767 -0.002131 0.001065 0.002131 -0.133861 8.681828 3.939331
1654544052.176768 -0.002131 -0.002131 0.002131 -0.133861 8.681828 3.939331
1654544052.181770 0.000000 0.000000 0.003196 -0.133861 8.681828 3.939331
1654544052.186771 0.000000 -0.003196 0.001065 -0.133861 8.681828 3.939331
1654544052.191773 0.002131 -0.005326 -0.002131 -0.133861 8.681828 3.952238
1654544052.196775 -0.007457 -0.004261 0.000000 -0.133861 8.681828 3.958251
1654544052.201777 0.001065 -0.002131 0.002131 -0.133861 8.681828 3.964265
1654544052.206778 -0.002131 0.001065 -0.002131 -0.133861 8.681828 3.958454
1654544052.211780 0.001065 -0.005326 0.001065 -0.133861 8.681828 3.958454
1654544052.216782 -0.001065 0.000000 0.002131 -0.133861 8.681828 3.958454
1654544052.221783 0.000000 -0.001065 -0.001065 -0.133861 8.681828 3.958454
1654544052.226785 -0.001065 -0.002131 0.002131 -0.133861 8.681828 3.941696
1654544052.231787 -0.001065 0.002131 0.000000 -0.133861 8.681828 3.935682
1654544052.236788 0.000000 0.001065 0.003196 -0.133861 8.681828 3.929668
1654544052.241790 0.000000 -0.003196 0.002131 -0.133861 8.681828 3.939331
1654544052.246792 -0.001065 0.002131 0.000000 -0.133861 8.681828 3.939331
1654544052.251793 -0.003196 0.002131 0.003196 -0.133861 8.681828 3.939331
1654544052.256795 0.001065 0.001065 0.001065 -0.133861 8.696420 3.924739
1654544052.261796 -0.003196 -0.001065 0.002131 -0.133861 8.702433 3.918725
1654544052.266798 -0.001065 0.001065 0.003196 -0.133861 8.708446 3.912712
1654544052.271800 0.000000 0.002131 0.001065 -0.133861 8.687440 3.947229
1654544052.276802 0.001065 -0.002131 0.000000 -0.133861 8.681426 3.959257
1654544052.281804 0.001065 0.004261 0.001065 -0.133861 8.675413 3.971284
1654544052.286805 -0.003196 -0.001065 -0.001065 -0.146291 8.681828 3.958454
1654544052.291807 -0.002131 -0.003196 0.004261 -0.152305 8.681828 3.958454
1654544052.296808 -0.002131 -0.004261 -0.001065 -0.158319 8.681828 3.958454
1654544052.301810 0.000000 -0.001065 0.000000 -0.141635 8.681828 3.947106
1654544052.306812 -0.001065 0.000000 0.002131 -0.135622 8.681828 3.941092
1654544052.311813 0.000000 0.000000 0.000000 -0.129608 8.681828 3.935079
1654544052.316815 0.000000 -0.003196 0.003196 -0.123595 8.681828 3.929065
1654544052.321817 -0.001065 -0.003196 0.002131 -0.133861 8.665547 3.939331
1654544052.326818 0.000000 0.001065 -0.001065 -0.133861 8.659533 3.939331
1654544052.331820 -0.005326 -0.004261 0.000000 -0.133861 8.653519 3.939331
1654544052.336821 0.000000 -0.002131 -0.001065 -0.133861 8.693096 3.954527
1654544052.341823 -0.002131 0.003196 0.001065 -0.133861 8.705123 3.960541
1654544052.346824 -0.002131 -0.004261 0.001065 -0.133861 8.717150 3.966554
1654544052.351826 -0.002131 -0.002131 -0.001065 -0.133861 8.686835 3.958454
1654544052.356827 -0.004261 -0.002131 0.003196 -0.133861 8.680822 3.958454
1654544052.361829 0.000000 -0.001065 0.002131 -0.133861 8.674808 3.958454
1654544052.366831 -0.001065 -0.004261 0.001065 -0.146895 8.694861 3.958454
1654544052.371833 -0.001065 -0.004261 0.002131 -0.152909 8.700875 3.958454
1654544052.376835 -0.004261 0.001065 -0.001065 -0.158923 8.706889 3.958454
1654544052.381836 0.001065 -0.006392 0.000000 -0.141031 8.688998 3.946502
1654544052.386838 -0.001065 0.003196 0.001065 -0.135018 8.682985 3.940489
1654544052.391840 -0.005326 0.005326 0.005326 -0.129005 8.676972 3.934475
1654544052.396841 0.000000 -0.004261 -0.001065 -0.122991 8.670958 3.928462
1654544052.401843 -0.002131 0.000000 0.004261 -0.133861 8.698712 3.922446
1654544052.406845 0.001065 -0.003196 0.001065 -0.133861 8.704727 3.916431
1654544052.411846 -0.002131 0.002131 0.002131 -0.133861 8.710741 3.910417
1654544052.416848 -0.004261 -0.002131 -0.001065 -0.133861 8.700950 3.951817
1654544052.421849 -0.006392 -0.002131 0.003196 -0.133861 8.700950 3.963845
1654544052.426851 0.001065 0.000000 0.002131 -0.133861 8.700950 3.975872
1654544052.431853 0.000000 0.000000 0.001065 -0.133861 8.700950 3.943732
1654544052.436855 0.000000 -0.002131 0.001065 -0.133861 8.700950 3.937719
1654544052.441856 -0.003196 -0.002131 0.001065 -0.133861 8.700950 3.931705
1654544052.446858 0.000000 -0.003196 0.003196 -0.133861 8.687310 3.939331
1654544052.451860 -0.002131 0.003196 0.001065 -0.133861 8.681296 3.939331
1654544052.456861 0.000000 -0.002131 0.004261 -0.133861 8.675283 3.939331
1654544052.461863 -0.001065 -0.004261 0.000000 -0.133861 8.681828 3.939331
1654544052.466864 0.002131 -0.002131 0.000000 -0.133861 8.681828 3.939331
1654544052.471866 0.001065 -0.002131 -0.001065 -0.133861 8.681828 3.939331
1654544052.476868 0.000000 0.002131 0.002131 -0.133861 8.681828 3.950807
1654544052.481869 -0.002131 -0.004261 0.002131 -0.133861 8.681828 3.956821
1654544052.486871 0.000000 0.003196 0.003196 -0.133861 8.681828 3.962835
1654544052.491873 0.001065 -0.001065 -0.001065 -0.133861 8.681828 3.968849
1654544052.496875 -0.002131 -0.005326 0.002131 -0.133861 8.665419 3.942047
1654544052.501876 0.000000 0.003196 0.005326 -0.133861 8.659406 3.936034
1654544052.506878 -0.001065 0.001065 0.003196 -0.133861 8.653391 3.930020
1654544052.511880 -0.004261 0.002131 -0.001065 -0.133861 8.693354 3.939331
1654544052.516881 0.000000 0.001065 0.002131 -0.133861 8.705381 3.939331
1654544052.521883 -0.005326 -0.006392 0.002131 -0.133861 8.717407 3.939331
1654544052.526885 -0.001065 0.001065 0.001065 -0.133861 8.686707 3.939331
1654544052.531886 -0.002131 -0.003196 0.000000 -0.133861 8.680693 3.939331
1654544052.536888 0.001065 0.001065 0.002131 -0.133861 8.674679 3.939331
1654544052.541890 0.000000 -0.004261 0.001065 -0.133861 8.681828 3.939331
1654544052.546891 -0.006392 -0.002131 0.002131 -0.133861 8.681828 3.939331
1654544052.551893 0.003196 0.000000 -0.001065 -0.133861 8.681828 3.939331
1654544052.556895 -0.004261 -0.003196 0.002131 -0.133861 8.681828 3.939331
1654544052.561896 -0.001065 -0.006392 -0.002131 -0.133861 8.681828 3.939331
1654544052.566898 -0.003196 0.000000 0.005326 -0.133861 8.681828 3.939331
1654544052.571899 -0.003196 0.002131 0.002131 -0.133861 8.681828 3.939331
1654544052.576901 0.001065 -0.002131 0.001065 -0.133861 8.681828 3.939331
1654544052.581903 -0.003196 0.002131 0.001065 -0.133861 8.681828 3.939331
1654544052.586905 0.000000 0.002131 0.003196 -0.133861 8.681828 3.939331
1654544052.591906 -0.002131 -0.003196 0.001065 -0.133861 8.681828 3.923403
1654544052.596908 0.001065 -0.005326 -0.001065 -0.133861 8.681828 3.917390
1654544052.601910 -0.004261 -0.001065 0.002131 -0.133861 8.681828 3.911377
1654544052.606911 0.002131 -0.005326 0.003196 -0.133861 8.681828 3.935054
1654544052.611913 0.000000 -0.003196 0.001065 -0.133861 8.681828 3.941067
1654544052.616915 -0.002131 0.002131 0.002131 -0.133861 8.681828 3.947080
1654544052.621917 0.000000 -0.003196 0.003196 -0.133861 8.681828 3.939331
1654544052.626918 -0.001065 0.000000 0.000000 -0.133861 8.681828 3.939331
1654544052.631920 0.004261 -0.002131 0.003196 -0.133861 8.681828 3.939331
1654544052.636921 0.000000 0.001065 -0.001065 -0.133861 8.681828 3.939331
1654544052.641923 -0.002131 0.000000 0.002131 -0.133861 8.681828 3.939331
1654544052.646925 -0.004261 -0.001065 0.003196 -0.133861 8.681828 3.939331
1654544052.651926 0.001065 -0.007457 0.000000 -0.145456 8.681828 3.950926
1654544052.656929 -0.005326 -0.002131 0.002131 -0.151470 8.681828 3.956940
1654544052.661930 -0.003196 0.004261 0.000000 -0.157483 8.681828 3.962953
1654544052.666931 -0.001065 0.000000 -0.003196 -0.163496 8.681828 3.968966
1654544052.671933 -0.005326 0.001065 0.004261 -0.136457 8.665300 3.941928
1654544052.676935 0.002131 -0.002131 0.001065 -0.130444 8.659286 3.935914
1654544052.681937 0.001065 0.000000 0.001065 -0.124430 8.653272 3.929901
1654544052.686938 -0.002131 -0.002131 0.001065 -0.133861 8.678147 3.939331
1654544052.691940 -0.001065 -0.002131 -0.001065 -0.133861 8.684160 3.939331
1654544052.696941 -0.005326 0.004261 0.003196 -0.133861 8.690173 3.939331
1654544052.701943 0.000000 -0.001065 -0.002131 -0.133861 8.681828 3.953688
1654544052.706945 -0.001065 -0.001065 0.001065 -0.133861 8.681828 3.959700
1654544052.711946 -0.004261 0.000000 0.000000 -0.133861 8.681828 3.965712
1654544052.716948 0.001065 0.000000 0.004261 -0.147133 8.681828 3.958454
1654544052.721950 -0.005326 -0.004261 -0.001065 -0.153146 8.681828 3.958454
1654544052.726952 0.003196 -0.003196 -0.001065 -0.159160 8.681828 3.958454
1654544052.731953 -0.004261 -0.001065 0.001065 -0.140793 8.681828 3.946264
1654544052.736955 0.000000 -0.001065 0.001065 -0.134779 8.681828 3.940250
1654544052.741957 0.001065 0.004261 0.006392 -0.128765 8.681828 3.934236
1654544052.746958 0.002131 0.000000 0.002131 -0.122752 8.681828 3.928222
1654544052.751960 -0.002131 0.002131 0.002131 -0.133861 8.681828 3.939331
1654544052.756962 -0.006392 -0.002131 0.003196 -0.133861 8.681828 3.939331
1654544052.761963 0.002131 -0.001065 0.003196 -0.133861 8.681828 3.939331
1654544052.766965 -0.001065 -0.003196 -0.003196 -0.133861 8.681828 3.923293
1654544052.771967 -0.004261 -0.003196 0.006392 -0.133861 8.681828 3.917280
1654544052.776968 -0.003196 0.001065 -0.002131 -0.133861 8.681828 3.911267
1654544052.781970 -0.002131 -0.001065 0.003196 -0.133861 8.696783 3.935164
1654544052.786972 0.001065 0.002131 0.002131 -0.133861 8.702796 3.941177
1654544052.791973 -0.002131 0.002131 -0.001065 -0.133861 8.708809 3.947191
1654544052.796975 -0.001065 0.003196 0.003196 -0.147733 8.687078 3.953204
1654544052.801977 -0.003196 0.001065 0.000000 -0.153747 8.681065 3.959217
1654544052.806978 0.000000 -0.005326 0.002131 -0.159759 8.675052 3.965230
1654544052.811980 -0.001065 0.002131 0.000000 -0.140195 8.681828 3.958454
1654544052.816982 -0.001065 0.006392 0.003196 -0.134182 8.681828 3.958454
1654544052.821984 -0.001065 -0.003196 -0.004261 -0.128168 8.681828 3.958454
1654544052.826985 -0.003196 0.000000 0.002131 -0.133861 8.693580 3.958454
1654544052.831987 0.001065 -0.003196 0.002131 -0.133861 8.699617 3.958454
1654544052.836989 -0.002131 -0.002131 -0.001065 -0.133861 8.705655 3.958454
1654544052.841927 -0.002131 0.000000 0.001065 -0.133861 8.711616 3.958454
1654544052.846929 -0.002131 -0.002131 0.000000 -0.133861 8.684311 3.958454
1654544052.851930 -0.001065 -0.002131 0.002131 -0.133861 8.678297 3.958454
1654544052.856932 -0.004261 -0.002131 0.002131 -0.133861 8.672283 3.958454
1654544052.861934 0.000000 0.004261 0.003196 -0.133861 8.681828 3.942893
1654544052.866935 -0.001065 0.000000 -0.002131 -0.133861 8.681828 3.936879
1654544052.871937 -0.002131 -0.002131 0.000000 -0.133861 8.681828 3.930864
1654544052.876939 0.001065 -0.003196 0.002131 -0.133861 8.681828 3.939331
1654544052.881941 0.001065 -0.003196 0.004261 -0.133861 8.681828 3.939331
1654544052.886942 -0.002131 0.000000 -0.001065 -0.133861 8.681828 3.939331
1654544052.891944 0.002131 0.001065 0.003196 -0.133861 8.681828 3.939331
1654544052.896946 -0.004261 0.001065 -0.002131 -0.133861 8.681828 3.939331
1654544052.901947 -0.004261 -0.003196 0.001065 -0.133861 8.681828 3.939331
1654544052.906949 0.000000 0.001065 0.000000 -0.133861 8.681828 3.939331
1654544052.911951 -0.002131 0.001065 0.006392 -0.133861 8.681828 3.939331
1654544052.916952 -0.002131 0.001065 0.000000 -0.133861 8.681828 3.939331
1654544052.921954 -0.003196 0.001065 0.001065 -0.145096 8.681828 3.950566
1654544052.926956 -0.005326 0.001065 0.001065 -0.151109 8.681828 3.956580
1654544052.931957 -0.003196 0.000000 0.003196 -0.157123 8.681828 3.962593
1654544052.936959 -0.004261 0.002131 -0.001065 -0.163137 8.681828 3.968607
1654544052.941961 -0.001065 -0.001065 0.003196 -0.152984 8.665659 3.958454
1654544052.946962 -0.003196 0.003196 -0.003196 -0.152984 8.659645 3.958454
1654544052.951964 -0.001065 -0.001065 0.005326 -0.152984 8.653630 3.958454
1654544052.956966 0.000000 0.004261 0.000000 -0.137898 8.662704 3.943368
1654544052.961967 0.001065 0.000000 0.002131 -0.131884 8.662704 3.937355
1654544052.966969 0.000000 -0.003196 0.003196 -0.125870 8.662704 3.931341
1654544052.971971 -0.002131 0.003196 0.000000 -0.133861 8.676709 3.939331
1654544052.976972 0.001065 0.000000 0.005326 -0.133861 8.682724 3.939331
1654544052.981974 0.001065 0.001065 0.000000 -0.133861 8.688738 3.939331
1654544052.986976 -0.001065 0.000000 0.004261 -0.133861 8.681828 3.939331
1654544052.991978 -0.003196 -0.002131 -0.001065 -0.133861 8.681828 3.939331
1654544052.996979 -0.003196 -0.003196 0.001065 -0.133861 8.681828 3.939331
1654544053.001981 -0.003196 0.003196 -0.001065 -0.133861 8.681828 3.951174
1654544053.006983 -0.001065 -0.003196 0.003196 -0.133861 8.681828 3.957187
1654544053.011984 -0.003196 0.000000 -0.002131 -0.133861 8.681828 3.963201
1654544053.016986 -0.003196 -0.003196 0.003196 -0.133861 8.681828 3.969214
1654544053.021988 0.001065 0.001065 0.003196 -0.150634 8.681828 3.958454
1654544053.026989 -0.002131 -0.001065 0.003196 -0.156647 8.681828 3.958454
1654544053.031991 -0.001065 -0.001065 0.002131 -0.162661 8.681828 3.958454
1654544053.036993 0.002131 -0.005326 -0.002131 -0.137294 8.681828 3.942765
1654544053.041994 0.001065 0.000000 0.001065 -0.131281 8.681828 3.936751
1654544053.046996 0.000000 -0.002131 0.001065 -0.125268 8.681828 3.930739
1654544053.051998 -0.002131 0.002131 0.000000 -0.148466 8.681828 3.939331
1654544053.056999 -0.003196 0.001065 -0.001065 -0.154479 8.681828 3.939331
1654544053.062001 -0.003196 0.000000 0.003196 -0.160492 8.681828 3.939331
1654544053.067003 -0.003196 -0.003196 -0.002131 -0.139460 8.681828 3.939331
1654544053.072004 0.000000 -0.002131 0.001065 -0.133446 8.681828 3.939331
1654544053.077006 0.000000 0.003196 0.003196 -0.127432 8.681828 3.939331
1654544053.082007 -0.001065 0.004261 0.001065 -0.133861 8.669385 3.939331
1654544053.087009 -0.003196 -0.001065 0.000000 -0.133861 8.663371 3.939331
1654544053.092011 -0.003196 0.000000 0.002131 -0.133861 8.657357 3.939331
1654544053.097013 0.000000 0.001065 0.003196 -0.133861 8.674065 3.939331
1654544053.102015 0.001065 0.005326 0.001065 -0.133861 8.680079 3.939331
1654544053.107016 -0.002131 -0.002131 0.001065 -0.133861 8.686093 3.939331
1654544053.112018 -0.001065 0.002131 -0.003196 -0.133861 8.692107 3.939331
1654544053.117020 0.000000 -0.001065 0.003196 -0.133861 8.698120 3.939331
1654544053.122021 -0.002131 0.002131 -0.001065 -0.133861 8.704133 3.939331
1654544053.127023 -0.004261 -0.001065 0.000000 -0.133861 8.710147 3.939331
1654544053.132025 0.000000 0.002131 0.001065 -0.149072 8.685739 3.939331
1654544053.137026 0.000000 0.000000 0.002131 -0.155086 8.679726 3.939331
1654544053.142028 -0.005326 -0.002131 0.001065 -0.161100 8.673712 3.939331
1654544053.147029 -0.005326 -0.003196 0.004261 -0.152984 8.667696 3.953462
1654544053.152031 0.000000 -0.002131 0.001065 -0.152984 8.661682 3.959476
1654544053.157033 -0.002131 0.001065 0.003196 -0.152984 8.655667 3.965490
1654544053.162034 -0.001065 0.001065 -0.002131 -0.126885 8.688803 3.945405
1654544053.167036 0.000000 0.001065 0.002131 -0.114856 8.700831 3.939391
1654544053.172038 -0.001065 0.000000 0.001065 -0.102829 8.712859 3.933377
1654544053.177040 -0.002131 0.001065 0.004261 -0.126707 8.688981 3.939331
1654544053.182041 -0.006392 -0.001065 -0.001065 -0.132721 8.682968 3.939331
1654544053.187043 -0.002131 0.001065 0.002131 -0.138735 8.676954 3.939331
1654544053.192044 -0.001065 -0.002131 0.003196 -0.144748 8.670940 3.939331
1654544053.197046 -0.003196 0.000000 0.002131 -0.133861 8.681828 3.939331
1654544053.202048 0.001065 -0.001065 0.003196 -0.133861 8.681828 3.939331
1654544053.207050 0.001065 -0.001065 0.002131 -0.133861 8.681828 3.939331
1654544053.212051 -0.001065 0.003196 0.001065 -0.133861 8.681828 3.955150
1654544053.217053 -0.001065 -0.001065 0.004261 -0.133861 8.681828 3.961163
1654544053.222054 -0.005326 -0.003196 0.000000 -0.133861 8.681828 3.967177
1654544053.227057 -0.001065 0.000000 0.001065 -0.148599 8.681828 3.958454
1654544053.232058 -0.002131 0.002131 0.001065 -0.154613 8.681828 3.958454
1654544053.237059 -0.001065 0.001065 0.000000 -0.160627 8.681828 3.958454
1654544053.242062 -0.003196 0.000000 0.001065 -0.139326 8.681828 3.958454
1654544053.247063 -0.001065 -0.001065 -0.001065 -0.133312 8.681828 3.958454
1654544053.252064 -0.001065 0.002131 0.001065 -0.127298 8.681828 3.958454
1654544053.257066 -0.002131 -0.003196 0.002131 -0.133861 8.681828 3.945878
1654544053.262068 -0.003196 0.003196 0.000000 -0.133861 8.681828 3.939865
1654544053.267070 0.001065 -0.004261 0.002131 -0.133861 8.681828 3.933851
1654544053.272072 0.000000 0.001065 0.001065 -0.145356 8.681828 3.939331
1654544053.277073 0.000000 -0.004261 0.001065 -0.151370 8.681828 3.939331
1654544053.282075 0.002131 0.002131 -0.002131 -0.157385 8.681828 3.939331
1654544053.287076 -0.001065 -0.004261 0.002131 -0.163399 8.681828 3.939331
1654544053.292078 0.001065 0.001065 -0.001065 -0.136554 8.681828 3.922901
1654544053.297080 0.001065 -0.001065 0.003196 -0.130540 8.681828 3.916887
1654544053.302081 -0.003196 -0.001065 0.003196 -0.124525 8.681828 3.910873
1654544053.307083 0.004261 0.001065 0.002131 -0.133861 8.697177 3.935559
1654544053.312084 -0.002131 0.001065 0.000000 -0.133861 8.703191 3.941573
1654544053.317086 -0.003196 -0.004261 -0.001065 -0.133861 8.709206 3.947588
1654544053.322088 -0.004261 -0.001065 0.002131 -0.148132 8.700950 3.939331
1654544053.327090 0.001065 -0.003196 0.001065 -0.154147 8.700950 3.939331
1654544053.332092 -0.003196 0.005326 0.002131 -0.160162 8.700950 3.939331
1654544053.337093 0.000000 -0.001065 -0.002131 -0.152984 8.687813 3.939331
1654544053.342162 0.002131 -0.003196 0.004261 -0.152984 8.681743 3.939331
1654544053.347164 -0.003196 -0.005326 0.000000 -0.152984 8.675754 3.939331
1654544053.352165 0.002131 0.001065 0.001065 -0.140871 8.681828 3.951444
1654544053.357167 0.002131 -0.003196 -0.001065 -0.134856 8.681828 3.957459
1654544053.362169 0.001065 0.001065 0.000000 -0.128842 8.681828 3.963473
1654544053.367170 -0.002131 0.002131 0.002131 -0.122827 8.681828 3.969487
1654544053.372172 -0.002131 -0.003196 0.002131 -0.133861 8.681828 3.924363
1654544053.377174 -0.003196 -0.002131 0.000000 -0.133861 8.681828 3.912336
1654544053.382175 -0.001065 -0.004261 0.000000 -0.133861 8.681828 3.900310
1654544053.387177 -0.002131 0.003196 -0.003196 -0.149823 8.681828 3.936171
1654544053.392179 -0.001065 0.000000 0.001065 -0.155837 8.681828 3.942185
1654544053.397181 0.000000 -0.003196 -0.002131 -0.161851 8.681828 3.948198
1654544053.402182 -0.001065 -0.001065 0.000000 -0.152984 8.696708 3.924450
1654544053.407184 -0.003196 0.005326 0.002131 -0.152984 8.702722 3.918436
1654544053.412185 0.002131 0.003196 0.003196 -0.152984 8.708735 3.912422
1654544053.417187 0.002131 0.002131 0.003196 -0.139184 8.700950 3.934008
1654544053.422189 -0.001065 0.002131 0.003196 -0.133171 8.700950 3.940021
1654544053.427190 -0.002131 0.000000 0.000000 -0.127157 8.700950 3.946035
1654544053.432192 -0.002131 0.001065 0.000000 -0.146578 8.688233 3.952049
1654544053.437194 0.001065 0.000000 0.000000 -0.152592 8.682219 3.958062
1654544053.442195 0.000000 -0.004261 0.000000 -0.158606 8.676206 3.964076
1654544053.447197 -0.004261 0.000000 0.003196 -0.152984 8.681828 3.946818
1654544053.452199 0.002131 0.002131 0.004261 -0.152984 8.681828 3.940805
1654544053.457201 -0.002131 0.003196 0.000000 -0.152984 8.681828 3.934791
1654544053.462202 -0.004261 0.000000 0.001065 -0.152984 8.681828 3.928777
1654544053.467204 0.001065 -0.001065 0.000000 -0.136417 8.681828 3.939331
1654544053.472205 -0.002131 0.002131 -0.001065 -0.130404 8.681828 3.939331
1654544053.477207 -0.004261 -0.005326 0.000000 -0.124391 8.681828 3.939331
1654544053.482209 -0.001065 -0.005326 -0.002131 -0.133861 8.681828 3.939331
1654544053.487211 -0.002131 0.002131 0.007457 -0.133861 8.681828 3.939331
1654544053.492213 0.000000 -0.001065 -0.001065 -0.133861 8.681828 3.939331
1654544053.497214 -0.002131 -0.006392 0.002131 -0.119458 8.696230 3.953734
1654544053.502216 -0.003196 0.001065 0.001065 -0.113444 8.702244 3.959748
1654544053.507217 -0.005326 0.001065 0.001065 -0.107430 8.708257 3.965762
1654544053.512219 -0.003196 -0.002131 0.000000 -0.128059 8.687629 3.931811
1654544053.517220 -0.002131 0.001065 -0.001065 -0.134074 8.681615 3.919783
1654544053.522222 -0.002131 -0.002131 0.002131 -0.140088 8.675601 3.907755
1654544053.527224 0.001065 0.001065 0.003196 -0.109378 8.694068 3.932450
1654544053.532225 0.001065 0.004261 0.001065 -0.097350 8.700082 3.938464
1654544053.537227 0.001065 0.003196 0.001065 -0.085321 8.706096 3.944478
1654544053.542229 -0.003196 -0.003196 0.000000 -0.073293 8.712110 3.950492
1654544053.547230 -0.001065 0.012784 0.012784 -0.233020 8.649423 4.042385
1654544053.552233 -0.002131 0.056461 0.022371 -0.281138 8.631379 4.078474
1654544053.557234 -0.009588 0.047938 0.009588 -0.329253 8.613336 4.114560
1654544053.562236 0.003196 -0.028763 -0.008522 -0.280788 8.675771 3.941406
1654544053.567238 0.007457 -0.096942 -0.028763 -0.292816 8.687799 3.899309
1654544053.572239 0.003196 -0.104399 -0.044742 -0.304844 8.699827 3.857212
1654544053.577241 -0.011718 -0.076701 -0.028763 0.373844 8.786937 3.709989
1654544053.582242 0.005326 0.015979 0.021306 0.638468 8.829036 3.625791
1654544053.587244 -0.020241 0.094811 0.053265 0.903131 8.871142 3.541580
1654544053.592246 -0.012784 0.109726 0.043677 -0.211819 8.690280 4.042647
1654544053.597247 0.007457 0.052200 0.012784 -0.542581 8.636155 4.211034
1654544053.602249 0.024502 0.001065 -0.022371 -0.873342 8.582030 4.379422
1654544053.607251 -0.007457 -0.005326 -0.031959 -0.355806 8.553605 4.059392
1654544053.612252 -0.014914 -0.003196 0.002131 -0.289657 8.511511 3.999257
1654544053.617254 -0.012784 -0.029828 0.041547 -0.223498 8.469410 3.939113
1654544053.622256 0.007457 -0.066048 0.028763 0.148827 8.815869 3.855401
1654544053.627258 0.018110 -0.066048 -0.019175 0.371405 8.972275 3.783214
1654544053.632259 -0.005326 -0.012784 -0.057526 0.593972 9.128673 3.711030
1654544053.637261 -0.023437 0.054330 -0.029828 0.816529 9.285064 3.638849
1654544053.642262 -0.022371 0.071375 0.023437 -0.364637 8.505635 4.001156
1654544053.647264 0.015979 0.028763 0.059657 -0.647292 8.325217 4.085351
1654544053.652266 0.023437 -0.035155 0.036220 -0.929947 8.144799 4.169546
1654544053.657268 0.012784 -0.035155 -0.008522 -0.118569 8.683319 3.941162
1654544053.662269 -0.013849 0.012784 -0.022371 0.019773 8.779557 3.905073
1654544053.667271 -0.015979 0.042612 -0.009588 0.158115 8.875795 3.868984
1654544053.672272 0.002131 0.001065 -0.003196 0.107258 8.797398 3.832906
1654544053.677274 0.007457 -0.059657 -0.006392 0.167401 8.821455 3.796820
1654544053.682276 -0.009588 -0.045808 -0.002131 0.227543 8.845512 3.760735
1654544053.687277 -0.008522 0.027698 0.020241 -0.224137 8.694471 4.034436
1654544053.692279 0.013849 0.047938 0.009588 -0.392519 8.640348 4.136669
1654544053.697281 0.010653 -0.012784 -0.011718 -0.560902 8.586225 4.238901
1654544053.702283 -0.014914 -0.043677 -0.013849 -0.332910 8.544483 4.056237
1654544053.707284 -0.021306 0.021306 0.009588 -0.308856 8.496375 4.020156
1654544053.712286 0.008522 0.069244 0.017045 -0.284799 8.448262 3.984071
1654544053.717288 0.024502 0.011718 -0.009588 0.078473 8.716740 3.789682
1654544053.722289 -0.001065 -0.086289 -0.014914 0.282956 8.837024 3.669398
1654544053.727291 -0.022371 -0.057526 0.004261 0.487449 8.957314 3.549108
1654544053.732293 -0.010653 0.041547 0.019175 0.691942 9.077604 3.428818
1654544053.737294 0.008522 0.063918 -0.007457 -0.029262 8.710677 3.909411
1654544053.742296 0.000000 -0.025567 -0.023437 -0.167564 8.650545 4.011634
1654544053.747298 -0.013849 -0.056461 -0.001065 -0.305859 8.590417 4.113852
1654544053.752299 0.000000 0.022371 0.023437 -0.429057 8.666670 4.291897
1654544053.757301 0.020241 0.071375 0.012784 -0.561366 8.660656 4.424205
1654544053.762303 0.015979 -0.003196 -0.006392 -0.693675 8.654641 4.556514
1654544053.767304 -0.027698 -0.077767 0.000000 -0.094028 8.578245 3.830180
1654544053.772306 -0.027698 -0.025567 0.009588 0.086415 8.542157 3.595604
1654544053.777308 0.010653 0.062853 -0.002131 0.266841 8.506072 3.361050
1654544053.782310 0.024502 0.043677 -0.025567 0.135337 8.729891 3.659353
1654544053.787311 -0.007457 -0.050069 -0.003196 0.171416 8.814077 3.671380
1654544053.792313 -0.030894 -0.057526 0.028763 0.207494 8.898260 3.683405
1654544053.797314 0.006392 0.030894 0.018110 -0.137600 8.756129 4.005140
1654544053.802316 0.026632 0.064983 -0.017045 -0.293953 8.726061 4.173520
1654544053.807318 0.004261 -0.012784 -0.015979 -0.450306 8.695993 4.341900
1654544053.812320 -0.026632 -0.059657 0.013849 -0.606658 8.665925 4.510280
1654544053.817321 -0.008522 0.005326 0.014914 -0.257718 8.703230 4.122837
1654544053.822323 0.021306 0.054330 -0.008522 -0.233663 8.697216 4.092769
1654544053.827325 0.012784 0.002131 -0.012784 -0.209608 8.691202 4.062699
1654544053.832326 -0.035155 -0.060722 0.014914 0.021919 8.573647 3.697705
1654544053.837328 -0.020241 -0.024502 0.017045 0.125135 8.525075 3.539846
1654544053.842179 0.025567 0.042612 -0.007457 0.225238 8.477968 3.386747
1654544053.847180 0.030894 0.035155 -0.024502 0.032455 8.709434 3.819745
1654544053.852182 -0.020241 -0.035155 0.005326 0.014416 8.775579 3.903930
1654544053.857184 -0.037285 -0.037285 0.022371 -0.003624 8.841725 3.988115
1654544053.862185 0.012784 0.015979 0.003196 -0.157626 8.717530 4.085904
1654544053.867187 0.021306 0.037285 -0.021306 -0.235806 8.699489 4.176112
1654544053.872189 -0.007457 -0.017045 0.002131 -0.313979 8.681449 4.266311
1654544053.877191 -0.026632 -0.037285 0.025567 -0.166902 8.725979 4.081203
1654544053.882192 0.002131 0.007457 0.005326 -0.136833 8.738007 4.039107
1654544053.887194 0.025567 0.043677 -0.025567 -0.106763 8.750035 3.997009
1654544053.892196 0.002131 0.007457 -0.008522 -0.065249 8.647714 3.817676
1654544053.897197 -0.029828 -0.041547 0.026632 -0.029162 8.599597 3.703399
1654544053.902199 -0.007457 -0.011718 0.018110 0.006924 8.551483 3.589127
1654544053.907201 0.023437 0.036220 -0.020241 0.043012 8.503366 3.474850
1654544053.912202 0.009588 0.018110 -0.015979 -0.117342 8.684431 3.900788
1654544053.917204 -0.028763 -0.027698 0.019175 -0.153427 8.720516 3.984985
1654544053.922206 -0.018110 -0.029828 0.019175 -0.189513 8.756602 4.069187
1654544053.927207 0.009588 0.013849 -0.017045 -0.164440 8.716240 4.061650
1654544053.932209 0.019175 0.030894 -0.019175 -0.176469 8.722254 4.109763
1654544053.937211 -0.013849 -0.010653 0.017045 -0.188497 8.728268 4.157877
1654544053.942212 -0.018110 -0.033024 0.028763 -0.072631 8.762706 4.007050
1654544053.947214 0.014914 0.005326 -0.009588 -0.030529 8.780749 3.970963
1654544053.952216 0.023437 0.034090 -0.027698 0.011575 8.798794 3.934873
1654544053.957217 -0.012784 0.005326 0.004261 -0.051376 8.633006 3.820011
1654544053.962219 -0.028763 -0.024502 0.031959 -0.057390 8.566854 3.747845
1654544053.967221 0.009588 -0.021306 0.003196 -0.063405 8.500696 3.675672
1654544053.972223 0.023437 0.020241 -0.023437 -0.153766 8.615288 3.892697
1654544053.977224 -0.001065 0.015979 -0.004261 -0.201880 8.639345 3.964868
1654544053.982226 -0.027698 -0.013849 0.023437 -0.249989 8.663399 4.037031
1654544053.987228 -0.005326 -0.022371 0.008522 -0.298100 8.687455 4.109199
1654544053.992229 0.019175 0.009588 -0.020241 -0.125435 8.711515 4.045511
1654544053.997231 0.004261 0.029828 -0.007457 -0.095365 8.735571 4.069567
1654544054.002233 -0.020241 0.004261 0.026632 -0.065294 8.759628 4.093624
1654544054.007234 -0.009588 -0.021306 0.014914 -0.003414 8.767783 3.910939
1654544054.012236 0.021306 -0.021306 -0.013849 0.038685 8.785826 3.856812
1654544054.017238 0.005326 0.020241 -0.019175 0.080787 8.803870 3.802680
1654544054.022239 -0.022371 0.015979 0.011718 -0.054985 8.644048 3.822676
1654544054.027241 -0.019175 -0.017045 0.017045 -0.085053 8.589925 3.798622
1654544054.032242 0.017045 -0.022371 -0.010653 -0.115120 8.535805 3.774568
1654544054.037244 0.018110 0.017045 -0.017045 -0.268861 8.577854 3.984099
1654544054.042246 -0.015979 0.028763 0.008522 -0.353053 8.565827 4.062278
1654544054.047248 -0.012784 -0.014914 0.024502 -0.437254 8.553799 4.140464
1654544054.052249 0.006392 -0.040481 -0.005326 -0.154327 8.668362 4.003433
1654544054.057251 0.013849 -0.005326 -0.021306 -0.064123 8.716470 3.979378
1654544054.062253 -0.009588 0.038351 0.000000 0.026084 8.764581 3.955323
1654544054.067255 -0.019175 0.008522 0.020241 0.081578 8.812705 3.884946
1654544054.072256 0.007457 -0.042612 0.003196 0.153749 8.860819 3.836832
1654544054.077258 0.017045 -0.022371 -0.020241 0.225923 8.908935 3.788716
1654544054.082259 -0.010653 0.031959 -0.002131 0.298097 8.957051 3.740600
1654544054.087261 -0.018110 0.038351 0.020241 -0.125107 8.658402 3.907153
1654544054.092263 0.004261 -0.023437 0.008522 -0.233351 8.580226 3.937221
1654544054.097265 0.019175 -0.037285 -0.012784 -0.341606 8.502042 3.967292
1654544054.102266 -0.007457 0.025567 -0.011718 -0.357275 8.562735 4.105376
1654544054.107268 -0.022371 0.051134 0.014914 -0.429443 8.538679 4.177545
1654544054.112270 0.001065 -0.006392 0.013849 -0.501615 8.514622 4.249716
1654544054.117271 0.017045 -0.060722 -0.009588 -0.057177 8.677118 3.920080
1654544054.122273 -0.003196 -0.013849 -0.011718 0.087164 8.731246 3.823853
1654544054.127275 -0.020241 0.055395 0.003196 0.231506 8.785374 3.727625
1654544054.132276 -0.002131 0.022371 0.011718 0.136986 8.826229 3.803908
1654544054.137278 0.015979 -0.043677 -0.004261 0.173070 8.874342 3.785866
1654544054.142280 0.001065 -0.035155 -0.006392 0.209154 8.922455 3.767824
1654544054.147281 -0.022371 0.044742 0.000000 -0.120409 8.726799 3.969170
1654544054.152283 0.002131 0.040481 0.013849 -0.264744 8.654632 4.059379
1654544054.157284 0.020241 -0.042612 0.001065 -0.409078 8.582464 4.149588
1654544054.162286 0.005326 -0.054330 -0.012784 -0.553406 8.510300 4.239793
1654544054.167288 -0.025567 0.025567 -0.002131 -0.372447 8.540858 4.090313
1654544054.172289 -0.005326 0.060722 0.009588 -0.402514 8.504777 4.096326
1654544054.177291 0.020241 -0.010653 0.004261 -0.432583 8.468694 4.102340
1654544054.182293 0.005326 -0.062853 -0.004261 0.034580 8.689243 3.771516
1654544054.187295 -0.025567 -0.004261 0.000000 0.190950 8.749385 3.651231
1654544054.192297 -0.013849 0.066048 0.004261 0.347319 8.809527 3.530947
1654544054.197298 0.023437 0.015979 0.003196 0.159615 8.824787 3.784651
1654544054.202300 0.009588 -0.055395 -0.003196 0.177658 8.866886 3.814722
1654544054.207301 -0.030894 -0.033024 -0.003196 0.195699 8.908984 3.844791
1654544054.212303 -0.021306 0.051134 0.004261 -0.202539 8.715176 4.096862
1654544054.217305 0.028763 0.037285 0.004261 -0.364888 8.655046 4.223133
1654544054.222306 0.024502 -0.044742 0.002131 -0.527237 8.594916 4.349405
1654544054.227308 -0.023437 -0.056461 -0.004261 -0.318628 8.573154 4.091918
1654544054.232310 -0.030894 0.030894 0.005326 -0.306601 8.531062 4.037799
1654544054.237311 0.018110 0.066048 0.005326 -0.294575 8.488970 3.983680
1654544054.242313 0.033024 -0.017045 0.001065 -0.024894 8.622535 3.777296
1654544054.247315 -0.020241 -0.066048 0.000000 0.119447 8.670649 3.644983
1654544054.252316 -0.041547 0.003196 0.004261 0.263781 8.718760 3.512676
1654544054.257318 0.006392 0.064983 0.004261 0.408130 8.766877 3.380357
1654544054.262320 0.043677 0.008522 0.001065 0.069765 8.814976 3.880541
1654544054.267322 -0.006392 -0.060722 -0.001065 0.039695 8.863089 3.976765
1654544054.272323 -0.050069 -0.027698 -0.001065 0.009626 8.911198 4.072986
1654544054.277325 -0.007457 0.053265 0.002131 -0.284991 8.741440 4.184759
1654544054.282326 0.044742 0.031959 0.001065 -0.417291 8.705358 4.286991
1654544054.287328 0.008522 -0.047938 -0.001065 -0.549592 8.669276 4.389223
1654544054.292330 -0.046873 -0.045808 0.002131 -0.247501 8.575279 3.999150
1654544054.297331 -0.022371 0.028763 0.004261 -0.199396 8.515147 3.896925
1654544054.302333 0.040481 0.052200 0.000000 -0.151288 8.455012 3.794696
1654544054.307335 0.025567 -0.021306 0.001065 0.057587 8.636019 3.705857
1654544054.312336 -0.039416 -0.056461 0.000000 0.177860 8.684129 3.609638
1654544054.317338 -0.035155 0.007457 0.003196 0.298127 8.732236 3.513424
1654544054.322340 0.035155 0.052200 0.001065 0.024351 8.743392 3.811249
1654544054.327342 0.037285 -0.001065 0.001065 -0.047810 8.773459 3.907464
1654544054.332343 -0.037285 -0.047938 0.003196 -0.119961 8.803522 4.003664
1654544054.337345 -0.045808 -0.018110 0.004261 -0.203357 8.743752 4.122346
1654544054.342346 0.024502 0.046873 0.001065 -0.281527 8.725713 4.230581
1654544054.347348 0.046873 0.026632 -0.003196 -0.359705 8.707672 4.338827
1654544054.352350 -0.015979 -0.039416 0.007457 -0.437879 8.689631 4.447068
1654544054.357352 -0.053265 -0.033024 0.003196 -0.128183 8.606938 3.957340
1654544054.362353 0.008522 0.023437 -0.002131 -0.062032 8.564841 3.843079
1654544054.367355 0.053265 0.037285 0.000000 0.004122 8.522743 3.728813
1654544054.372357 -0.003196 -0.020241 -0.001065 0.055200 8.631457 3.689945
1654544054.377358 -0.057526 -0.038351 0.003196 0.115342 8.649500 3.605746
1654544054.382360 -0.006392 0.006392 0.001065 0.175482 8.667542 3.521551
1654544054.387362 0.049004 0.045808 -0.002131 -0.086372 8.741574 3.899344
1654544054.392363 0.017045 0.001065 0.000000 -0.164546 8.783668 4.013598
1654544054.397365 -0.055395 -0.044742 0.006392 -0.242716 8.825759 4.127847
1654544054.402367 -0.023437 -0.012784 0.001065 -0.217570 8.764525 4.151707
1654544054.407368 0.045808 0.034090 -0.006392 -0.247637 8.758511 4.223869
1654544054.412370 0.030894 0.024502 -0.001065 -0.277705 8.752498 4.296030
1654544054.417372 -0.043677 -0.035155 0.006392 -0.106567 8.675467 3.989456
1654544054.422373 -0.040481 -0.029828 0.004261 -0.034401 8.633370 3.869180
1654544054.427375 0.034090 0.020241 -0.004261 0.037769 8.591272 3.748897
1654544054.432377 0.038351 0.028763 -0.004261 0.109942 8.549171 3.628609
1654544054.437379 -0.031959 -0.019175 0.005326 0.031181 8.607690 3.676037
1654544054.442380 -0.047938 -0.037285 0.005326 0.049221 8.601677 3.615904
1654544054.447382 0.019175 0.007457 0.001065 0.067261 8.595664 3.555771
1654544054.452383 0.052200 0.041547 -0.004261 -0.197027 8.715129 3.997554
1654544054.457385 -0.017045 0.008522 0.002131 -0.287230 8.757224 4.129851
1654544054.462387 -0.056461 -0.039416 0.010653 -0.377432 8.799318 4.262148
1654544054.467388 0.005326 -0.018110 0.001065 -0.204787 8.753800 4.131607
1654544054.472390 0.052200 0.030894 -0.008522 -0.186745 8.759814 4.155663
1654544054.477392 -0.004261 0.024502 0.000000 -0.168703 8.765828 4.179719
1654544054.482394 -0.051134 -0.026632 0.008522 -0.028941 8.717746 3.919774
1654544054.487395 -0.008522 -0.027698 0.006392 0.043234 8.699703 3.817526
1654544054.492397 0.053265 0.021306 -0.001065 0.115410 8.681659 3.715278
1654544054.497398 0.014914 0.035155 -0.001065 -0.011526 8.638735 3.762378
1654544054.502400 -0.054330 -0.018110 0.002131 -0.035583 8.608664 3.732307
1654544054.507402 -0.023437 -0.040481 0.007457 -0.059637 8.578596 3.702239
1654544054.512404 0.044742 0.001065 -0.001065 -0.197316 8.650784 3.933498
1654544054.517405 0.022371 0.041547 -0.003196 -0.281514 8.674841 4.041752
1654544054.522407 -0.041547 0.006392 0.001065 -0.365712 8.698897 4.150006
1654544054.527409 -0.034090 -0.044742 0.005326 -0.449906 8.722953 4.258255
1654544054.532410 0.030894 -0.019175 0.004261 -0.191898 8.747010 4.122079
1654544054.537412 0.035155 0.041547 -0.007457 -0.149796 8.771068 4.140122
1654544054.542414 -0.028763 0.028763 -0.002131 -0.107699 8.795123 4.158164
1654544054.547415 -0.037285 -0.035155 0.006392 0.071308 8.727892 3.871933
1654544054.552417 0.022371 -0.035155 0.006392 0.167530 8.715864 3.769697
1654544054.557419 0.033024 0.033024 -0.003196 0.263752 8.703836 3.667461
1654544054.562420 -0.019175 0.044742 -0.003196 -0.007450 8.635287 3.763077
1654544054.567422 -0.041547 -0.023437 0.005326 -0.067583 8.599207 3.745037
1654544054.572424 0.013849 -0.055395 0.006392 -0.127717 8.563126 3.726997
1654544054.577425 0.044742 0.010653 -0.002131 -0.292279 8.631436 4.022163
1654544054.582427 -0.008522 0.060722 -0.006392 -0.400547 8.643466 4.148476
1654544054.587429 -0.041547 0.003196 -0.001065 -0.508809 8.655496 4.274782
1654544054.592430 0.002131 -0.052200 0.013849 -0.210059 8.691462 4.077862
1654544054.597432 0.037285 -0.021306 0.004261 -0.113834 8.715518 4.041778
1654544054.602434 0.003196 0.056461 -0.011718 -0.017614 8.739573 4.005696
1654544054.607436 -0.038351 0.029828 -0.001065 0.078615 8.763630 3.969610
1654544054.612437 -0.002131 -0.054330 0.012784 0.157936 8.770783 3.764492
1654544054.617439 0.037285 -0.045808 0.006392 0.248148 8.788826 3.668266
1654544054.622441 0.003196 0.043677 -0.004261 0.338364 8.806869 3.572035
1654544054.627442 -0.029828 0.051134 -0.005326 -0.077758 8.650860 3.855561
1654544054.632444 -0.013849 -0.033024 0.009588 -0.180003 8.602744 3.903677
1654544054.637446 0.031959 -0.059657 0.010653 -0.282238 8.554634 3.951787
1654544054.642447 0.008522 0.027698 -0.002131 -0.354973 8.609717 4.073593
1654544054.647449 -0.028763 0.062853 -0.010653 -0.445177 8.603704 4.151770
1654544054.652451 -0.020241 -0.009588 0.003196 -0.535381 8.597690 4.229946
1654544054.657452 0.024502 -0.064983 0.013849 -0.147481 8.700964 4.007610
1654544054.662454 0.017045 -0.010653 0.002131 -0.027177 8.743070 3.953473
1654544054.667456 -0.024502 0.066048 -0.015979 0.093114 8.785172 3.899342
1654544054.672457 -0.017045 0.011718 0.001065 0.125326 8.776943 3.807464
1654544054.677459 0.020241 -0.059657 0.013849 0.203517 8.794988 3.735288
1654544054.682461 0.022371 -0.033024 0.008522 0.281708 8.813032 3.663112
1654544054.687463 -0.021306 0.052200 -0.013849 -0.031207 8.704542 3.890018
1654544054.692464 -0.025567 0.042612 -0.008522 -0.157501 8.656430 3.974215
1654544054.697466 0.018110 -0.051134 0.014914 -0.283808 8.608313 4.058419
1654544054.702468 0.020241 -0.055395 0.017045 -0.410109 8.560199 4.142619
1654544054.707469 -0.015979 0.037285 -0.012784 -0.355606 8.610706 4.095326
1654544054.712471 -0.024502 0.059657 -0.012784 -0.415751 8.598677 4.131413
1654544054.717473 0.012784 -0.026632 0.010653 -0.475893 8.586648 4.167498
1654544054.722474 0.023437 -0.060722 0.018110 -0.090614 8.712857 3.881034
1654544054.727476 -0.013849 0.012784 -0.002131 0.023671 8.754962 3.790808
1654544054.732478 -0.027698 0.063918 -0.012784 0.137963 8.797069 3.700578
1654544054.737479 0.011718 0.001065 0.001065 0.109392 8.767755 3.796035
1654544054.742481 0.026632 -0.063918 0.019175 0.163520 8.779783 3.784006
1654544054.747483 -0.014914 -0.014914 -0.001065 0.217645 8.791811 3.771978
1654544054.752484 -0.031959 0.054330 -0.017045 -0.097789 8.671853 3.997525
1654544054.757486 0.003196 0.023437 -0.003196 -0.212059 8.623740 4.093752
1654544054.762487 0.034090 -0.047938 0.021306 -0.326330 8.575626 4.189980
1654544054.767489 -0.006392 -0.030894 0.010653 -0.258829 8.636577 4.055958
1654544054.772491 -0.034090 0.035155 -0.017045 -0.282885 8.642591 4.037916
1654544054.777493 -0.002131 0.036220 -0.012784 -0.306942 8.648606 4.019873
1654544054.782495 0.035155 -0.029828 0.011718 -0.330999 8.654620 4.001830
1654544054.787496 0.006392 -0.045808 0.019175 -0.013984 8.728850 3.796193
1654544054.792498 -0.037285 0.020241 -0.009588 0.082256 8.758925 3.711984
1654544054.797499 -0.015979 0.039416 -0.015979 0.178486 8.788996 3.627782
1654544054.802501 0.036220 -0.004261 0.010653 0.035097 8.739196 3.879042
1654544054.807503 0.011718 -0.043677 0.017045 0.041111 8.739196 3.921142
1654544054.812505 -0.035155 -0.003196 -0.006392 0.047125 8.739196 3.963242
1654544054.817506 -0.026632 0.038351 -0.019175 -0.170264 8.679621 4.109595
1654544054.822508 0.034090 0.010653 0.004261 -0.254464 8.655564 4.193795
1654544054.827509 0.030894 -0.039416 0.018110 -0.338664 8.631507 4.277996
1654544054.832511 -0.033024 -0.023437 0.000000 -0.174228 8.621269 3.989253
1654544054.837513 -0.036220 0.026632 -0.018110 -0.150174 8.603228 3.911077
1654544054.842517 0.025567 0.021306 0.000000 -0.126106 8.585177 3.832855
1654544054.847519 0.030894 -0.019175 0.020241 -0.038359 8.694488 3.805583
1654544054.852520 -0.023437 -0.025567 0.002131 0.015778 8.736594 3.751447
1654544054.857522 -0.040481 0.010653 -0.017045 0.069914 8.778700 3.697311
1654544054.862524 0.014914 0.026632 -0.005326 -0.085785 8.715883 3.911292
1654544054.867526 0.041547 0.000000 0.019175 -0.139911 8.703855 3.995488
1654544054.872528 -0.009588 -0.023437 0.014914 -0.194040 8.691826 4.079689
1654544054.877529 -0.046873 -0.010653 -0.015979 -0.248164 8.679798 4.163881
1654544054.882530 -0.007457 0.013849 -0.015979 -0.169576 8.667766 4.082191
1654544054.887532 0.045808 0.015979 0.013849 -0.175591 8.655735 4.106252
1654544054.892534 0.004261 -0.005326 0.014914 -0.181605 8.643706 4.130310
1654544054.897536 -0.042612 -0.018110 -0.006392 -0.063492 8.662704 3.906118
1654544054.902537 -0.017045 -0.005326 -0.011718 -0.021383 8.662704 3.833931
1654544054.907539 0.042612 0.009588 0.011718 0.020729 8.662704 3.761740
1654544054.912541 0.018110 0.011718 0.015979 -0.023808 8.691579 3.805089
1654544054.917542 -0.038351 -0.013849 -0.003196 -0.017794 8.703608 3.781032
1654544054.922544 -0.025567 -0.017045 -0.013849 -0.011779 8.715637 3.756974
1654544054.927546 0.027698 0.010653 0.001065 -0.192785 8.700950 4.000086
1654544054.932547 0.027698 0.024502 0.019175 -0.270970 8.700950 4.096313
1654544054.937549 -0.029828 -0.006392 0.004261 -0.349165 8.700950 4.192554
1654544054.942551 -0.033024 -0.035155 -0.017045 -0.157199 8.664109 4.092315
1654544054.947552 0.020241 -0.009588 0.001065 -0.103061 8.646064 4.092315
1654544054.952554 0.037285 0.028763 0.013849 -0.048922 8.628017 4.092315
1654544054.957556 -0.019175 0.014914 0.004261 0.050038 8.665990 3.879438
1654544054.962558 -0.038351 -0.025567 -0.014914 0.128241 8.678021 3.765141
1654544054.967559 0.007457 -0.030894 -0.002131 0.206444 8.690052 3.650845
1654544054.972561 0.038351 0.022371 0.014914 0.284643 8.702083 3.536554
1654544054.977563 -0.005326 0.031959 0.012784 -0.105260 8.730248 3.858101
1654544054.982564 -0.039416 -0.018110 -0.010653 -0.201497 8.748292 3.906219
1654544054.987566 -0.003196 -0.039416 -0.002131 -0.297724 8.766334 3.954333
1654544054.992568 0.038351 0.006392 0.007457 -0.318661 8.678949 4.092825
1654544054.997569 0.009588 0.044742 0.009588 -0.384826 8.654889 4.177034
1654544055.002571 -0.040481 -0.003196 -0.009588 -0.450994 8.630828 4.261248
1654544055.007573 -0.013849 -0.056461 -0.007457 -0.125624 8.676687 4.023836
1654544055.012574 0.027698 -0.006392 0.007457 -0.023373 8.682702 3.969703
1654544055.017576 0.020241 0.054330 0.011718 0.078878 8.688718 3.915570
1654544055.022578 -0.028763 0.020241 -0.001065 0.142391 8.707632 3.771135
1654544055.027580 -0.022371 -0.057526 -0.008522 0.226591 8.719661 3.674907
1654544055.032581 0.022371 -0.040481 0.007457 0.310782 8.731688 3.578688
1654544055.037583 0.022371 0.050069 0.009588 -0.042444 8.720073 3.837126
1654544055.042584 -0.015979 0.044742 -0.002131 -0.180778 8.720073 3.921329
1654544055.047586 -0.027698 -0.038351 -0.007457 -0.319111 8.720073 4.005532
1654544055.052588 0.007457 -0.058591 0.004261 -0.457438 8.720073 4.089731
1654544055.057589 0.025567 0.033024 0.008522 -0.428211 8.653040 4.173948
1654544055.062591 -0.004261 0.069244 -0.001065 -0.506405 8.628980 4.258156
1654544055.067593 -0.029828 -0.023437 -0.010653 -0.584598 8.604921 4.342364
1654544055.072594 0.000000 -0.077767 0.006392 -0.019900 8.659261 3.940486
1654544055.077596 0.023437 0.007457 0.009588 0.148524 8.665276 3.838229
1654544055.082598 0.000000 0.077767 -0.005326 0.316948 8.671291 3.735971
1654544055.087600 -0.024502 0.012784 -0.007457 0.222501 8.721108 3.706751
1654544055.092601 -0.007457 -0.083093 0.001065 0.282643 8.745165 3.634581
1654544055.097603 0.018110 -0.027698 0.012784 0.342786 8.769222 3.562410
1654544055.102605 0.006392 0.075636 -0.002131 -0.151392 8.712156 3.936402
1654544055.107606 -0.012784 0.036220 -0.012784 -0.337812 8.700129 4.062687
1654544055.112608 -0.014914 -0.070310 0.002131 -0.524251 8.688101 4.188984
1654544055.117610 0.011718 -0.059657 0.012784 -0.412156 8.663636 4.153572
1654544055.122611 0.007457 0.061787 -0.001065 -0.454252 8.645595 4.201682
1654544055.127613 -0.012784 0.068179 -0.011718 -0.496348 8.627554 4.249792
1654544055.132615 -0.012784 -0.051134 -0.007457 -0.095531 8.654938 3.957201
1654544055.137616 0.000000 -0.082028 0.017045 0.096912 8.660951 3.824897
1654544055.142618 0.009588 0.034090 0.005326 0.289364 8.666965 3.692586
1654544055.147620 -0.009588 0.086289 -0.012784 0.481816 8.672979 3.560276
1654544055.152621 -0.010653 -0.017045 -0.007457 0.250723 8.695283 3.704898
1654544055.157623 0.002131 -0.090550 0.015979 0.286805 8.707311 3.674829
1654544055.162625 0.004261 0.005326 0.008522 0.322890 8.719339 3.644759
1654544055.167627 -0.008522 0.093746 -0.014914 -0.264659 8.685739 4.025372
1654544055.172628 -0.003196 0.020241 -0.007457 -0.475176 8.679725 4.157697
1654544055.177630 -0.001065 -0.089485 0.014914 -0.685694 8.673710 4.290022
1654544055.182631 -0.002131 -0.040481 0.011718 -0.415713 8.667696 4.196222
1654544055.187633 0.001065 0.075636 -0.010653 -0.421727 8.661682 4.232307
1654544055.192635 0.001065 0.050069 -0.011718 -0.427741 8.655667 4.268393
1654544055.197637 -0.003196 -0.068179 0.009588 0.009965 8.675755 3.847708
1654544055.202638 -0.002131 -0.070310 0.012784 0.208425 8.681769 3.673304
1654544055.207640 0.002131 0.051134 -0.007457 0.406884 8.687783 3.498900
1654544055.212641 0.002131 0.079897 -0.017045 0.186412 8.681828 3.683580
1654544055.217643 0.002131 -0.035155 0.006392 0.174384 8.681828 3.689594
1654544055.222645 -0.004261 -0.082028 0.026632 0.162355 8.681828 3.695609
1654544055.227647 -0.007457 0.025567 -0.003196 0.150326 8.681828 3.701623
1654544055.232648 0.000000 0.085224 -0.019175 -0.334958 8.681828 4.180895
1654544055.237650 0.009588 -0.004261 0.002131 -0.515353 8.681828 4.355277
1654544055.242652 -0.004261 -0.086289 0.020241 -0.695766 8.681828 4.529677
1654544055.247653 -0.014914 -0.015979 0.006392 -0.338295 8.666005 4.150368
1654544055.252655 -0.003196 0.083093 -0.019175 -0.314237 8.659990 4.114280
1654544055.257657 0.017045 0.025567 -0.005326 -0.290181 8.653976 4.078196
1654544055.262658 -0.005326 -0.073505 0.019175 0.072966 8.692189 3.747247
1654544055.267660 -0.015979 -0.040481 0.009588 0.235367 8.704219 3.590861
1654544055.272662 -0.001065 0.063918 -0.013849 0.397769 8.716249 3.434475
1654544055.277663 0.013849 0.053265 -0.009588 0.095581 8.673621 3.756340
1654544055.282665 0.006392 -0.047938 0.020241 0.053481 8.661593 3.810470
1654544055.287667 -0.012784 -0.064983 0.020241 0.011376 8.649563 3.864604
1654544055.292669 -0.012784 0.039416 -0.013849 -0.219482 8.675288 4.069738
1654544055.297670 0.008522 0.066048 -0.014914 -0.351789 8.681303 4.196030
1654544055.302672 0.009588 -0.022371 0.011718 -0.484102 8.687317 4.322329
1654544055.307673 -0.013849 -0.068179 0.017045 -0.282819 8.693330 4.103530
1654544055.312675 -0.018110 0.006392 -0.006392 -0.240717 8.699344 4.049400
1654544055.317677 0.006392 0.068179 -0.021306 -0.198623 8.705357 3.995278
1654544055.322679 0.019175 0.005326 0.006392 -0.156526 8.711371 3.941153
1654544055.327680 -0.005326 -0.067114 0.023437 0.082895 8.684510 3.722575
1654544055.332682 -0.020241 -0.018110 -0.002131 0.197201 8.678494 3.608270
1654544055.337683 0.000000 0.057526 -0.021306 0.311490 8.672479 3.493981
1654544055.342685 0.017045 0.021306 -0.003196 0.010048 8.650874 3.841853
1654544055.347570 -0.004261 -0.047938 0.023437 -0.037300 8.639037 3.906956
1654544055.352572 -0.020241 -0.030894 0.008522 -0.085775 8.626918 3.973609
1654544055.357574 -0.006392 0.040481 -0.018110 -0.233409 8.657866 4.096248
1654544055.362575 0.021306 0.043677 -0.006392 -0.323633 8.663881 4.186472
1654544055.367577 0.005326 -0.034090 0.021306 -0.413866 8.669896 4.276705
1654544055.372578 -0.018110 -0.045808 0.010653 -0.200302 8.702328 4.036725
1654544055.377580 -0.013849 0.018110 -0.014914 -0.152180 8.720374 3.976573
1654544055.382582 0.014914 0.047938 -0.014914 -0.104059 8.738420 3.916421
1654544055.387583 0.009588 -0.014914 0.019175 -0.031667 8.707941 3.807734
1654544055.392585 -0.012784 -0.041547 0.015979 0.028486 8.701926 3.723520
1654544055.397587 -0.018110 0.003196 -0.009588 0.088645 8.695910 3.639297
1654544055.402589 0.013849 0.042612 -0.015979 0.148801 8.689894 3.555079
1654544055.407590 0.015979 0.006392 0.010653 -0.064170 8.632673 3.914687
1654544055.412592 -0.010653 -0.034090 0.014914 -0.100259 8.608613 3.986866
1654544055.417593 -0.018110 -0.013849 -0.003196 -0.136347 8.584555 4.059042
1654544055.422595 0.000000 0.033024 -0.015979 -0.236400 8.656439 4.131222
1654544055.427597 0.015979 0.018110 0.004261 -0.296550 8.668469 4.203401
1654544055.432599 -0.004261 -0.026632 0.017045 -0.356703 8.680499 4.275584
1654544055.437600 -0.022371 -0.024502 0.000000 -0.088760 8.722358 3.974932
1654544055.442602 -0.001065 0.012784 -0.019175 -0.016577 8.746419 3.896734
1654544055.447603 0.015979 0.030894 -0.002131 0.055602 8.770479 3.818540
1654544055.452605 0.005326 -0.007457 0.017045 -0.024409 8.725359 3.795677
1654544055.457607 -0.019175 -0.031959 0.009588 -0.018394 8.719343 3.741537
1654544055.462609 -0.004261 0.002131 -0.013849 -0.012378 8.713328 3.687400
1654544055.467611 0.015979 0.025567 -0.008522 -0.108431 8.656282 3.926717
1654544055.472612 0.008522 0.001065 0.013849 -0.150530 8.626211 4.010916
1654544055.477614 -0.013849 -0.026632 0.009588 -0.192634 8.596137 4.095123
1654544055.482615 -0.019175 -0.013849 -0.010653 -0.188020 8.636137 4.062539
1654544055.487617 0.010653 0.019175 -0.009588 -0.206064 8.642152 4.086597
1654544055.492619 0.012784 0.019175 0.007457 -0.224107 8.648166 4.110655
1654544055.497621 -0.004261 -0.005326 0.014914 -0.242152 8.654181 4.134715
1654544055.502622 -0.019175 -0.020241 -0.004261 -0.044182 8.743284 3.909527
1654544055.507624 0.006392 0.006392 -0.008522 0.015975 8.779378 3.843355
1654544055.512625 0.014914 0.017045 0.004261 0.076132 8.815472 3.777182
1654544055.517627 -0.003196 0.000000 0.011718 -0.050199 8.727243 3.835348
1654544055.522629 -0.015979 -0.019175 -0.002131 -0.062228 8.715213 3.817304
1654544055.527630 0.002131 -0.008522 -0.006392 -0.074257 8.703184 3.799260
1654544055.532632 0.009588 0.013849 0.001065 -0.187519 8.647768 3.998126
1654544055.537634 0.004261 0.015979 0.010653 -0.241658 8.617690 4.070312
1654544055.542636 -0.009588 -0.010653 0.004261 -0.295800 8.587611 4.142502
1654544055.547637 -0.010653 -0.017045 -0.008522 -0.135789 8.624458 4.000534
1654544055.552639 0.010653 -0.002131 0.000000 -0.093683 8.624458 3.976473
1654544055.557641 0.008522 0.018110 0.005326 -0.051577 8.624458 3.952413
1654544055.562642 -0.010653 0.004261 -0.001065 -0.034083 8.735217 3.854513
1654544055.567644 -0.013849 -0.021306 -0.004261 -0.004006 8.789354 3.794360
1654544055.572646 0.004261 -0.014914 -0.001065 0.026068 8.843488 3.734211
1654544055.577647 0.008522 0.014914 0.006392 -0.089817 8.740429 3.876165
1654544055.582649 -0.005326 0.018110 0.002131 -0.137932 8.710357 3.924280
1654544055.587651 -0.007457 -0.012784 -0.003196 -0.186049 8.680284 3.972396
1654544055.592652 0.007457 -0.028763 0.004261 -0.234161 8.650214 4.020508
1654544055.597654 -0.001065 0.006392 -0.002131 -0.217636 8.620135 4.084798
1654544055.602656 -0.001065 0.022371 0.001065 -0.241694 8.590063 4.138929
1654544055.607657 -0.004261 -0.006392 0.000000 -0.265753 8.559988 4.193062
1654544055.612659 0.001065 -0.035155 0.003196 -0.018296 8.650588 3.870089
1654544055.617661 -0.008522 -0.009588 0.004261 0.065917 8.668633 3.773847
1654544055.622663 0.005326 0.037285 -0.003196 0.150125 8.686677 3.677609
1654544055.627664 -0.001065 0.020241 0.002131 0.024239 8.732741 3.805470
1654544055.632666 -0.003196 -0.031959 -0.001065 0.018223 8.762820 3.805470
1654544055.637667 -0.003196 -0.033024 0.008522 0.012207 8.792896 3.805470
1654544055.642669 0.004261 0.022371 0.001065 -0.187757 8.732459 3.986490
1654544055.647671 0.006392 0.033024 -0.005326 -0.283998 8.720429 4.070701
1654544055.652673 -0.002131 -0.019175 0.003196 -0.380239 8.708398 4.154912
1654544055.657674 -0.008522 -0.046873 0.007457 -0.239434 8.648957 4.073192
1654544055.662676 -0.003196 0.008522 0.001065 -0.215374 8.612867 4.073192
1654544055.667678 0.009588 0.047938 -0.006392 -0.191311 8.576772 4.073192
1654544055.672679 0.006392 0.008522 0.003196 -0.167249 8.540680 4.073192
1654544055.677681 -0.011718 -0.053265 0.010653 0.108673 8.638917 3.737376
1654544055.682683 -0.007457 -0.023437 0.004261 0.222962 8.650948 3.617071
1654544055.687684 0.006392 0.044742 -0.008522 0.337252 8.662978 3.496767
1654544055.692686 0.010653 0.031959 -0.002131 -0.019836 8.722135 3.832131
1654544055.697688 -0.009588 -0.037285 0.006392 -0.085989 8.752205 3.886256
1654544055.702689 -0.015979 -0.043677 0.006392 -0.152149 8.782277 3.940386
1654544055.707691 0.000000 0.035155 -0.007457 -0.320771 8.695296 4.126241
1654544055.712693 0.015979 0.053265 -0.002131 -0.429055 8.677249 4.234526
1654544055.717694 -0.002131 -0.019175 0.009588 -0.537329 8.659203 4.342799
1654544055.722696 -0.022371 -0.063918 0.004261 -0.184674 8.668270 4.030814
1654544055.727698 -0.005326 0.008522 -0.008522 -0.088427 8.662254 3.952614
1654544055.732699 0.018110 0.066048 -0.007457 0.007820 8.656238 3.874414
1654544055.737701 0.004261 0.011718 0.013849 0.116558 8.662704 3.733801
1654544055.742703 -0.027698 -0.068179 0.009588 0.218833 8.662704 3.625510
1654544055.747705 -0.014914 -0.027698 -0.004261 0.321098 8.662704 3.517229
1654544055.752706 0.018110 0.058591 -0.010653 0.012806 8.685511 3.808103
1654544055.757708 0.017045 0.040481 0.004261 -0.101484 8.697542 3.910362
1654544055.762710 -0.018110 -0.047938 0.012784 -0.215768 8.709572 4.012617
1654544055.767711 -0.020241 -0.047938 -0.001065 -0.330052 8.721602 4.114871
1654544055.772713 0.010653 0.041547 -0.008522 -0.427995 8.700950 4.233466
1654544055.777714 0.025567 0.058591 0.002131 -0.536260 8.700950 4.341731
1654544055.782716 -0.009588 -0.033024 0.015979 -0.644537 8.700950 4.450008
1654544055.787718 -0.031959 -0.072440 0.000000 -0.096535 8.670426 3.963052
1654544055.792720 0.003196 0.017045 -0.014914 0.053827 8.658397 3.836748
1654544055.797721 0.026632 0.069244 -0.001065 0.204182 8.646369 3.710449
1654544055.802723 -0.002131 -0.001065 0.012784 0.155986 8.662704 3.669254
1654544055.807725 -0.036220 -0.074571 0.008522 0.222135 8.662704 3.579051
1654544055.812726 -0.007457 -0.021306 -0.009588 0.288288 8.662704 3.488843
1654544055.817728 0.026632 0.069244 -0.007457 -0.117106 8.662704 3.922577
1654544055.822730 0.009588 0.030894 0.009588 -0.267450 8.662704 4.072921
1654544055.827731 -0.031959 -0.067114 0.010653 -0.417794 8.662704 4.223265
1654544055.832733 -0.014914 -0.046873 -0.008522 -0.364223 8.686829 4.181756
1654544055.837735 0.023437 0.052200 -0.009588 -0.412514 8.698902 4.236083
1654544055.842736 0.018110 0.057526 0.008522 -0.460807 8.710975 4.290413
1654544055.847681 -0.022371 -0.039416 0.008522 -0.508544 8.722909 4.344117
1654544055.852682 -0.023437 -0.064983 -0.002131 0.037053 8.700950 3.838403
1654544055.857684 0.017045 0.024502 -0.013849 0.199446 8.700950 3.694053
1654544055.862685 0.028763 0.066048 0.004261 0.361832 8.700950 3.549710
1654544055.867687 -0.017045 -0.013849 0.011718 0.174994 8.669198 3.691093
1654544055.872689 -0.029828 -0.069244 0.001065 0.205067 8.657169 3.655005
1654544055.877690 0.008522 -0.003196 -0.010653 0.235142 8.645139 3.618915
1654544055.882692 0.030894 0.069244 0.002131 -0.208306 8.647907 3.997157
1654544055.887694 -0.007457 0.021306 0.011718 -0.370712 8.641892 4.129488
1654544055.892695 -0.029828 -0.070310 0.004261 -0.533110 8.635877 4.261813
1654544055.897697 -0.004261 -0.034090 -0.007457 -0.366249 8.684739 4.188352
1654544055.902699 0.028763 0.064983 0.000000 -0.384294 8.702784 4.230457
1654544055.907701 0.001065 0.043677 0.008522 -0.402340 8.720830 4.272564
1654544055.912702 -0.027698 -0.051134 0.007457 -0.028479 8.726234 3.922764
1654544055.917704 -0.010653 -0.055395 -0.004261 0.139945 8.738264 3.778400
1654544055.922706 0.027698 0.036220 -0.004261 0.308369 8.750295 3.634037
1654544055.927707 0.013849 0.061787 0.009588 0.164546 8.692945 3.697848
1654544055.932709 -0.027698 -0.028763 0.005326 0.170561 8.668887 3.661762
1654544055.937711 -0.019175 -0.068179 -0.006392 0.176575 8.644830 3.625676
1654544055.942712 0.022371 0.017045 -0.004261 0.182589 8.620772 3.589591
1654544055.947714 0.017045 0.073505 0.003196 -0.306336 8.613210 4.064937
1654544055.952716 -0.021306 0.001065 0.008522 -0.480762 8.595166 4.215304
1654544055.957717 -0.019175 -0.071375 0.003196 -0.655179 8.577123 4.365664
1654544055.962719 0.012784 -0.014914 -0.006392 -0.367042 8.682423 4.145979
1654544055.967721 0.015979 0.072440 -0.004261 -0.361027 8.712494 4.151993
1654544055.972722 -0.011718 0.027698 0.006392 -0.355013 8.742565 4.158007
1654544055.977724 -0.026632 -0.067114 -0.002131 0.038215 8.743973 3.848520
1654544055.982726 0.011718 -0.046873 -0.001065 0.206646 8.762020 3.722197
1654544055.987727 0.017045 0.053265 0.004261 0.375086 8.780067 3.595867
1654544055.992729 -0.007457 0.050069 0.001065 0.158841 8.705258 3.721571
1654544055.997731 -0.022371 -0.043677 -0.001065 0.152825 8.681194 3.709539
1654544056.002732 0.001065 -0.059657 0.000000 0.146810 8.657132 3.697508
1654544056.007734 0.014914 0.034090 -0.002131 -0.200465 8.633076 3.990177
1654544056.012736 0.002131 0.067114 0.002131 -0.374898 8.609016 4.128521
1654544056.017737 -0.020241 -0.019175 0.001065 -0.549332 8.584956 4.266865
1654544056.022739 -0.004261 -0.074571 0.000000 -0.723766 8.560896 4.405209
1654544056.027741 0.013849 0.010653 0.006392 -0.315945 8.639590 4.115429
1654544056.032743 0.002131 0.073505 -0.002131 -0.285866 8.651622 4.103397
1654544056.037744 -0.019175 0.008522 -0.002131 -0.255788 8.663653 4.091366
1654544056.042746 -0.007457 -0.076701 0.003196 0.095340 8.755947 3.774340
1654544056.047747 0.010653 -0.018110 0.010653 0.245724 8.798055 3.648017
1654544056.052749 0.005326 0.063918 -0.001065 0.396131 8.840169 3.521675
1654544056.057751 -0.010653 0.036220 -0.002131 0.097233 8.717543 3.784729
1654544056.062752 -0.006392 -0.054330 0.000000 0.067160 8.693484 3.814803
1654544056.067754 0.008522 -0.043677 0.005326 0.037085 8.669424 3.844877
1654544056.072756 -0.004261 0.047938 0.002131 -0.243089 8.617581 4.069472
1654544056.077758 -0.007457 0.052200 -0.006392 -0.381418 8.581495 4.183744
1654544056.082759 -0.009588 -0.030894 -0.003196 -0.519741 8.545411 4.298011
1654544056.087761 0.006392 -0.057526 0.009588 -0.299261 8.637472 4.091916
1654544056.092762 0.002131 0.019175 0.006392 -0.269188 8.661530 4.055829
1654544056.097764 -0.008522 0.057526 -0.005326 -0.239115 8.685589 4.019741
1654544056.102766 -0.007457 -0.015979 -0.006392 -0.009527 8.709648 3.842819
1654544056.107767 0.004261 -0.062853 0.003196 0.122800 8.733708 3.734551
1654544056.112769 -0.005326 -0.002131 0.011718 0.255128 8.757768 3.626283
1654544056.117771 -0.008522 0.056461 -0.005326 0.387467 8.781829 3.518005
1654544056.122773 -0.001065 0.010653 -0.008522 0.036275 8.722523 3.859910
1654544056.127774 0.010653 -0.055395 0.004261 -0.005826 8.716509 3.914040
1654544056.132776 -0.002131 -0.021306 0.013849 -0.047932 8.710493 3.968176
1654544056.137778 -0.009588 0.047938 0.001065 -0.245938 8.610930 4.100248
1654544056.142780 -0.001065 0.031959 -0.015979 -0.348181 8.568830 4.184448
1654544056.147781 0.013849 -0.042612 -0.001065 -0.450415 8.526734 4.268641
1654544056.152783 -0.003196 -0.039416 0.013849 -0.204397 8.629743 3.990073
1654544056.157784 -0.011718 0.026632 0.004261 -0.162301 8.647784 3.923923
1654544056.162786 -0.006392 0.043677 -0.012784 -0.120206 8.665825 3.857773
1654544056.167788 0.011718 -0.015979 -0.003196 -0.010944 8.724163 3.805029
1654544056.172789 0.007457 -0.039416 0.014914 0.061234 8.760251 3.744881
1654544056.177791 -0.017045 0.008522 0.010653 0.133411 8.796340 3.684733
1654544056.182793 -0.011718 0.039416 -0.011718 -0.016739 8.745968 3.908668
1654544056.187794 0.013849 -0.001065 -0.011718 -0.052826 8.739953 3.986857
1654544056.192796 0.012784 -0.038351 0.011718 -0.088915 8.733938 4.065051
1654544056.197798 -0.015979 -0.011718 0.013849 -0.136268 8.682840 4.041785
1654544056.202800 -0.019175 0.025567 -0.008522 -0.178364 8.652771 4.065840
1654544056.207801 0.009588 0.014914 -0.015979 -0.220462 8.622701 4.089897
1654544056.212803 0.020241 -0.022371 0.009588 -0.262561 8.592631 4.113953
1654544056.217805 -0.014914 -0.017045 0.019175 -0.158814 8.659789 3.878697
1654544056.222806 -0.025567 0.012784 -0.006392 -0.146783 8.665804 3.806512
1654544056.227808 0.005326 0.012784 -0.018110 -0.134753 8.671819 3.734331
1654544056.232810 0.025567 -0.015979 0.000000 -0.107592 8.723226 3.843716
1654544056.237811 -0.005326 -0.017045 0.021306 -0.089547 8.747287 3.843716
1654544056.242813 -0.027698 0.006392 0.004261 -0.071502 8.771347 3.843716
1654544056.247814 -0.002131 0.012784 -0.019175 -0.123718 8.711092 3.998286
1654544056.252816 0.027698 -0.005326 -0.008522 -0.135748 8.699062 4.064449
1654544056.257818 0.004261 -0.007457 0.023437 -0.147778 8.687033 4.130611
1654544056.262820 -0.026632 -0.002131 0.012784 -0.081967 8.675003 3.989202
1654544056.267822 -0.011718 0.003196 -0.019175 -0.057907 8.662972 3.959126
1654544056.272823 0.017045 0.002131 -0.013849 -0.033847 8.650943 3.929052
1654544056.277825 0.015979 -0.001065 0.014914 -0.093053 8.674599 3.863297
1654544056.282826 -0.023437 -0.006392 0.021306 -0.111097 8.680614 3.815180
1654544056.287828 -0.015979 -0.008522 -0.007457 -0.129141 8.686629 3.767062
1654544056.292830 0.019175 0.000000 -0.014914 -0.147184 8.692644 3.718947
1654544056.297831 0.021306 0.011718 0.009588 -0.215709 8.681828 3.956927
1654544056.302833 -0.020241 0.006392 0.017045 -0.251794 8.681828 4.011054
1654544056.307835 -0.030894 -0.015979 -0.007457 -0.287878 8.681828 4.065181
1654544056.312836 0.014914 -0.010653 -0.018110 -0.150725 8.697577 4.103578
1654544056.317838 0.029828 0.013849 0.003196 -0.120652 8.703591 4.151695
1654544056.322840 -0.011718 0.012784 0.021306 -0.090576 8.709606 4.199817
1654544056.327841 -0.026632 -0.019175 0.001065 0.056895 8.700950 3.895785
1654544056.332843 0.000000 -0.029828 -0.015979 0.135103 8.700950 3.799529
1654544056.337845 0.028763 0.013849 -0.003196 0.213303 8.700950 3.703282
1654544056.342847 0.000000 0.035155 0.021306 -0.007843 8.687330 3.824593
1654544056.347822 -0.030894 -0.004261 0.002131 -0.061784 8.681337 3.824593
1654544056.352823 -0.005326 -0.040481 -0.014914 -0.116011 8.675312 3.824593
1654544056.357825 0.027698 0.001065 -0.003196 -0.282707 8.656790 3.987337
1654544056.362827 0.009588 0.044742 0.019175 -0.390971 8.644760 4.065528
1654544056.367828 -0.028763 0.006392 0.008522 -0.499235 8.632731 4.143719
1654544056.372830 -0.015979 -0.046873 -0.011718 -0.241400 8.666465 4.073192
1654544056.377832 0.025567 -0.014914 -0.008522 -0.157181 8.678496 4.073192
1654544056.382833 0.014914 0.050069 0.017045 -0.072963 8.690527 4.073192
1654544056.387835 -0.023437 0.028763 0.008522 0.011255 8.702559 4.073192
1654544056.392837 -0.021306 -0.049004 -0.008522 0.226555 8.730975 3.778306
1654544056.397838 0.014914 -0.046873 -0.010653 0.358905 8.749022 3.670020
1654544056.402840 0.020241 0.044742 0.007457 0.491254 8.767069 3.561735
1654544056.407842 -0.014914 0.059657 0.011718 -0.019278 8.723890 3.820815
1654544056.412844 -0.021306 -0.035155 -0.005326 -0.139594 8.717874 3.856910
1654544056.417845 0.007457 -0.071375 -0.013849 -0.259904 8.711858 3.893003
1654544056.422847 0.025567 0.021306 0.004261 -0.422881 8.634699 4.114067
1654544056.427849 -0.008522 0.077767 0.008522 -0.561240 8.598606 4.228363
1654544056.432850 -0.025567 -0.007457 0.002131 -0.699593 8.562514 4.342655
1654544056.437852 0.002131 -0.083093 -0.012784 -0.246089 8.644792 4.062376
1654544056.442853 0.021306 -0.009588 0.003196 -0.113756 8.662837 3.996209
1654544056.447855 0.001065 0.084158 0.012784 0.018583 8.680883 3.930039
1654544056.452857 -0.019175 0.031959 0.000000 0.223406 8.735163 3.755169
1654544056.457859 -0.008522 -0.089485 -0.008522 0.391854 8.771259 3.634849
1654544056.462860 0.018110 -0.044742 0.002131 0.560293 8.807354 3.514536
1654544056.467862 0.003196 0.075636 0.012784 0.728740 8.843450 3.394216
1654544056.472864 -0.014914 0.059657 0.000000 -0.106788 8.709378 3.920527
1654544056.477865 -0.008522 -0.063918 -0.006392 -0.293269 8.685316 4.028806
1654544056.482867 0.013849 -0.082028 -0.003196 -0.479750 8.661254 4.137085
1654544056.487869 0.007457 0.053265 0.009588 -0.538710 8.621254 4.245361
1654544056.492871 -0.010653 0.086289 -0.003196 -0.677063 8.591177 4.353637
1654544056.497872 -0.007457 -0.040481 -0.007457 -0.815415 8.561101 4.461913
1654544056.502874 0.007457 -0.102269 0.003196 -0.180917 8.649923 3.975689
1654544056.507875 0.000000 0.013849 0.010653 -0.006473 8.667969 3.843352
1654544056.512877 -0.007457 0.104399 -0.001065 0.167988 8.686016 3.711002
1654544056.517879 -0.006392 0.007457 -0.004261 0.287340 8.745434 3.675137
1654544056.522881 0.003196 -0.101203 -0.005326 0.437760 8.781535 3.584885
1654544056.527882 0.002131 -0.020241 0.008522 0.588159 8.817631 3.494646
1654544056.532884 0.000000 0.098007 0.000000 0.013920 8.739306 3.887495
1654544056.537885 0.004261 0.038351 -0.004261 -0.178565 8.721260 4.025843
1654544056.542887 0.003196 -0.094811 0.004261 -0.371040 8.703215 4.164184
1654544056.547889 -0.001065 -0.054330 0.008522 -0.447194 8.638630 4.186198
1654544056.552891 -0.005326 0.080963 0.002131 -0.579533 8.596522 4.264399
1654544056.557892 -0.002131 0.069244 -0.010653 -0.711872 8.554414 4.342599
1654544056.562894 -0.001065 -0.068179 -0.003196 -0.844218 8.512304 4.420804
1654544056.567896 -0.001065 -0.086289 0.012784 -0.081559 8.652509 3.852614
1654544056.572897 -0.010653 0.047938 0.006392 0.110931 8.676570 3.696216
1654544056.577899 0.000000 0.094811 -0.006392 0.303431 8.700632 3.539810
1654544056.582901 0.007457 -0.034090 -0.007457 0.309953 8.740192 3.631371
1654544056.587902 -0.001065 -0.103334 0.009588 0.430255 8.770268 3.571220
1654544056.592904 -0.010653 0.014914 0.005326 0.550563 8.800345 3.511066
1654544056.597906 -0.005326 0.103334 -0.012784 -0.064484 8.729484 3.998808
1654544056.602907 0.019175 0.003196 -0.004261 -0.250922 8.717455 4.167204
1654544056.607909 0.002131 -0.095877 0.014914 -0.437351 8.705428 4.335591
1654544056.612911 -0.019175 -0.026632 0.013849 -0.437100 8.640044 4.197251
1654544056.617912 -0.008522 0.094811 -0.006392 -0.539351 8.603956 4.227325
1654544056.622914 0.018110 0.038351 -0.013849 -0.641602 8.567867 4.257399
1654544056.627916 0.005326 -0.082028 0.005326 -0.179887 8.666638 3.931922
1654544056.632918 -0.014914 -0.053265 0.014914 -0.005434 8.696716 3.787548
1654544056.637919 -0.012784 0.067114 -0.002131 0.169002 8.726791 3.643187
1654544056.642921 0.014914 0.063918 -0.014914 0.343447 8.756867 3.498819
1654544056.647923 0.010653 -0.058591 0.005326 0.242691 8.718147 3.664039
1654544056.652924 -0.013849 -0.068179 0.017045 0.320885 8.724162 3.627950
1654544056.657926 -0.023437 0.043677 0.002131 0.399074 8.730177 3.591863
1654544056.662928 0.005326 0.079897 -0.021306 -0.119150 8.720073 4.071598
1654544056.667929 0.028763 -0.026632 0.000000 -0.263514 8.720073 4.227991
1654544056.672931 -0.008522 -0.077767 0.018110 -0.407877 8.720073 4.384385
1654544056.677933 -0.029828 0.013849 0.007457 -0.386761 8.644869 4.164725
1654544056.682934 0.003196 0.073505 -0.011718 -0.464953 8.614795 4.170740
1654544056.687936 0.025567 -0.002131 -0.006392 -0.543145 8.584721 4.176755
1654544056.692938 -0.002131 -0.079897 0.014914 -0.146572 8.666352 3.861586
1654544056.697939 -0.033024 -0.011718 0.006392 -0.020234 8.684401 3.729232
1654544056.702941 -0.009588 0.075636 -0.014914 0.106098 8.702448 3.596884
1654544056.707943 0.026632 0.023437 -0.014914 0.116400 8.694714 3.735214
1654544056.712944 0.007457 -0.072440 0.014914 0.188573 8.700728 3.729200
1654544056.717946 -0.026632 -0.038351 0.013849 0.260751 8.706743 3.723185
1654544056.722948 -0.018110 0.050069 -0.010653 -0.021308 8.712757 3.988747
1654544056.727950 0.022371 0.038351 -0.018110 -0.129569 8.718772 4.121066
1654544056.732951 0.017045 -0.035155 0.007457 -0.237830 8.724786 4.253385
1654544056.737953 -0.024502 -0.043677 0.019175 -0.346091 8.730801 4.385704
1654544056.742954 -0.029828 0.035155 -0.006392 -0.286923 8.669845 4.116199
1654544056.747956 0.017045 0.044742 -0.014914 -0.335039 8.651802 4.104170
1654544056.752958 0.034090 -0.026632 0.005326 -0.383155 8.633758 4.092141
1654544056.757960 -0.015979 -0.049004 0.017045 -0.102347 8.662704 3.829502
1654544056.762961 -0.029828 0.013849 0.003196 -0.024161 8.662704 3.721245
1654544056.767963 0.006392 0.042612 -0.018110 0.054032 8.662704 3.612977
1654544056.772965 0.033024 -0.003196 -0.004261 0.030145 8.691875 3.781810
1654544056.777966 -0.007457 -0.044742 0.015979 0.066237 8.703906 3.787826
1654544056.782968 -0.033024 -0.007457 0.007457 0.102328 8.715936 3.793841
1654544056.787970 -0.003196 0.033024 -0.013849 -0.064199 8.700950 4.015977
1654544056.792971 0.034090 0.004261 -0.009588 -0.118334 8.700950 4.118231
1654544056.797973 0.006392 -0.033024 0.015979 -0.172469 8.700950 4.220485
1654544056.802975 -0.035155 -0.007457 0.012784 -0.176880 8.688522 4.074153
1654544056.807976 -0.018110 0.033024 -0.011718 -0.206952 8.682508 4.056110
1654544056.812978 0.028763 0.012784 -0.013849 -0.237022 8.676494 4.038067
1654544056.817980 0.017045 -0.023437 0.011718 -0.164960 8.681828 3.917891
1654544056.822981 -0.024502 -0.021306 0.014914 -0.140903 8.681828 3.845720
1654544056.827983 -0.020241 0.013849 -0.004261 -0.116846 8.681828 3.773548
1654544056.832985 0.023437 0.011718 -0.012784 -0.092788 8.681828 3.701376
1654544056.837986 0.019175 -0.010653 0.001065 -0.052246 8.665504 3.873562
1654544056.842988 -0.023437 -0.013849 0.018110 -0.022097 8.659474 3.891652
1654544056.847952 -0.025567 0.012784 -0.002131 0.007821 8.653490 3.909603
1654544056.852954 0.010653 0.014914 -0.013849 -0.099067 8.677910 4.034014
1654544056.857955 0.030894 -0.007457 0.001065 -0.123125 8.683924 4.094159
1654544056.862957 -0.008522 -0.007457 0.015979 -0.147184 8.689940 4.154307
1654544056.867959 -0.028763 -0.001065 0.001065 -0.086485 8.695953 4.002560
1654544056.872961 -0.001065 0.000000 -0.014914 -0.074455 8.701968 3.972485
1654544056.877962 0.029828 -0.001065 -0.003196 -0.062426 8.707982 3.942412
1654544056.882964 -0.002131 0.002131 0.014914 -0.141726 8.700950 3.886249
1654544056.887966 -0.028763 0.006392 0.010653 -0.171798 8.700950 3.844148
1654544056.892967 -0.006392 -0.006392 -0.009588 -0.201870 8.700950 3.802047
1654544056.897969 0.026632 -0.009588 -0.007457 -0.184074 8.665049 3.927486
1654544056.902971 0.009588 0.000000 0.008522 -0.190089 8.647005 3.969589
1654544056.907972 -0.025567 0.007457 0.008522 -0.196103 8.628962 4.011689
1654544056.912974 -0.012784 -0.003196 -0.005326 -0.202117 8.610919 4.053790
1654544056.917976 0.019175 -0.018110 -0.009588 -0.056013 8.677386 4.028283
1654544056.922977 0.014914 -0.002131 0.005326 -0.007900 8.689414 4.046326
1654544056.927979 -0.018110 0.013849 0.008522 0.040216 8.701443 4.064369
1654544056.932981 -0.021306 -0.001065 -0.003196 0.040860 8.713469 3.860913
1654544056.937983 0.017045 -0.027698 -0.008522 0.070928 8.725496 3.794764
1654544056.942984 0.017045 -0.002131 0.004261 0.100997 8.737524 3.728612
1654544056.947986 -0.013849 0.033024 0.007457 -0.163712 8.690596 3.898287
1654544056.952988 -0.017045 0.004261 0.001065 -0.253921 8.678568 3.928357
1654544056.957989 0.013849 -0.028763 -0.005326 -0.344122 8.666542 3.958424
1654544056.962991 0.019175 -0.017045 -0.002131 -0.284112 8.627191 4.029481
1654544056.967993 -0.005326 0.039416 0.004261 -0.308171 8.603132 4.077598
1654544056.972994 -0.020241 0.022371 0.004261 -0.332229 8.579073 4.125716
1654544056.977996 0.000000 -0.036220 -0.003196 -0.066919 8.655661 3.959959
1654544056.982997 0.017045 -0.039416 0.003196 0.047366 8.679722 3.905823
1654544056.987999 -0.001065 0.027698 0.003196 0.161657 8.703783 3.851686
1654544056.993001 -0.014914 0.042612 0.004261 0.114884 8.727839 3.820565
1654544056.998003 -0.005326 -0.022371 -0.004261 0.144959 8.751899 3.778460
1654544057.003004 0.013849 -0.052200 0.003196 0.175031 8.775956 3.736359
1654544057.008006 0.004261 0.015979 0.004261 0.205105 8.800016 3.694254
1654544057.013008 -0.013849 0.057526 -0.001065 -0.241576 8.725439 3.980944
1654544057.018010 -0.007457 -0.012784 0.000000 -0.385946 8.713408 4.059145
1654544057.023011 0.010653 -0.059657 0.001065 -0.530303 8.701378 4.137338
1654544057.028013 -0.001065 -0.009588 -0.001065 -0.382784 8.627893 4.108003
1654544057.033015 -0.008522 0.067114 0.000000 -0.412862 8.591800 4.144096
1654544057.038016 -0.004261 0.020241 0.002131 -0.442940 8.555707 4.180189
1654544057.043018 0.006392 -0.066048 0.002131 0.012724 8.662481 3.887691
1654544057.048019 0.002131 -0.035155 0.005326 0.187172 8.686543 3.785429
1654544057.053021 -0.006392 0.061787 -0.002131 0.361619 8.710605 3.683167
1654544057.058022 -0.002131 0.050069 0.001065 0.166192 8.721452 3.726220
1654544057.063024 0.003196 -0.056461 0.003196 0.172207 8.739497 3.690130
1654544057.068026 -0.002131 -0.062853 0.006392 0.178222 8.757542 3.654041
1654544057.073028 -0.008522 0.040481 -0.003196 -0.179657 8.714936 3.993977
1654544057.078030 -0.002131 0.072440 -0.002131 -0.354099 8.702906 4.144359
1654544057.083031 0.005326 -0.030894 0.001065 -0.528517 8.690877 4.294718
1654544057.088033 -0.003196 -0.086289 0.007457 -0.702934 8.678848 4.445078
1654544057.093035 -0.009588 0.012784 -0.001065 -0.399525 8.632687 4.168807
1654544057.098037 -0.001065 0.092681 -0.003196 -0.405540 8.608627 4.168807
1654544057.103038 0.008522 0.007457 0.002131 -0.411555 8.584569 4.168807
1654544057.108040 -0.003196 -0.088420 0.006392 0.158002 8.688410 3.753116
1654544057.113041 -0.009588 -0.023437 0.005326 0.368532 8.712471 3.596722
1654544057.118043 -0.001065 0.084158 -0.009588 0.579052 8.736530 3.440336
1654544057.123044 0.010653 0.041547 0.003196 0.178268 8.715859 3.746154
1654544057.128046 0.002131 -0.072440 0.009588 0.142181 8.721873 3.776227
1654544057.133048 -0.015979 -0.057526 0.005326 0.106093 8.727888 3.806300
1654544057.138050 -0.002131 0.066048 -0.005326 -0.303418 8.706242 4.140644
1654544057.143051 0.020241 0.068179 -0.002131 -0.501908 8.700227 4.303046
1654544057.148053 0.003196 -0.044742 0.007457 -0.700389 8.694213 4.465439
1654544057.153055 -0.021306 -0.079897 0.008522 -0.363308 8.637191 4.130523
1654544057.158056 -0.006392 0.022371 -0.005326 -0.309175 8.607117 4.058346
1654544057.163058 0.012784 0.083093 -0.006392 -0.255042 8.577044 3.986169
1654544057.168060 0.010653 -0.020241 0.005326 0.044259 8.663706 3.797237
1654544057.173062 -0.017045 -0.088420 0.007457 0.224718 8.693783 3.664900
1654544057.178063 -0.012784 -0.003196 -0.002131 0.405169 8.723858 3.532569
1654544057.183065 0.009588 0.088420 -0.008522 0.585629 8.753934 3.400232
1654544057.188066 0.020241 0.018110 0.009588 0.084984 8.700950 3.799489
1654544057.193068 -0.015979 -0.083093 0.014914 0.018814 8.700950 3.859643
1654544057.198070 -0.021306 -0.034090 -0.003196 -0.047352 8.700950 3.919794
1654544057.203071 0.000000 0.074571 -0.011718 -0.377565 8.700950 4.197394
1654544057.208073 0.027698 0.051134 -0.002131 -0.545974 8.700950 4.341745
1654544057.213075 -0.007457 -0.063918 0.018110 -0.714390 8.700950 4.486102
1654544057.218076 -0.023437 -0.059657 0.006392 -0.304614 8.672039 4.095629
1654544057.223078 -0.007457 0.049004 -0.011718 -0.232431 8.660009 4.017431
1654544057.228080 0.028763 0.061787 -0.005326 -0.160255 8.647979 3.939240
1654544057.233082 0.003196 -0.041547 0.012784 0.099191 8.676081 3.727286
1654544057.238083 -0.024502 -0.076701 0.001065 0.255575 8.682096 3.588946
1654544057.243085 -0.011718 0.025567 -0.007457 0.411960 8.688111 3.450606
1654544057.248087 0.024502 0.075636 -0.009588 0.101035 8.681828 3.779572
1654544057.253088 0.014914 -0.011718 0.011718 0.028864 8.681828 3.869787
1654544057.258090 -0.024502 -0.074571 0.009588 -0.043305 8.681828 3.959997
1654544057.263092 -0.022371 -0.009588 -0.010653 -0.250113 8.693045 4.106326
1654544057.268093 0.022371 0.072440 -0.008522 -0.394469 8.699060 4.226622
1654544057.273095 0.023437 0.021306 0.008522 -0.538833 8.705075 4.346925
1654544057.278097 -0.022371 -0.064983 0.013849 -0.683203 8.711090 4.467234
1654544057.283098 -0.027698 -0.028763 -0.006392 -0.229790 8.717107 4.038227
1654544057.288100 0.012784 0.058591 -0.010653 -0.151589 8.723122 3.954010
1654544057.293102 0.028763 0.041547 0.005326 -0.073383 8.729138 3.869789
1654544057.298104 -0.012784 -0.051134 0.008522 0.140580 8.689909 3.695055
1654544057.303105 -0.026632 -0.056461 -0.004261 0.272929 8.677877 3.574738
1654544057.308107 0.000000 0.033024 -0.013849 0.405278 8.665846 3.454421
1654544057.313108 0.027698 0.055395 -0.004261 0.033411 8.667822 3.824310
1654544057.318110 -0.005326 -0.025567 0.017045 -0.050799 8.661807 3.914535
1654544057.323112 -0.028763 -0.058591 0.005326 -0.135010 8.655791 4.004761
1654544057.328114 -0.010653 0.014914 -0.009588 -0.257991 8.675630 4.133756
1654544057.333115 0.029828 0.058591 -0.005326 -0.360242 8.681646 4.242022
1654544057.338117 0.008522 0.002131 0.012784 -0.462493 8.687661 4.350288
1654544057.343119 -0.027698 -0.057526 0.010653 -0.233064 8.681828 4.055811
1654544057.348128 -0.014914 -0.009588 -0.006392 -0.166826 8.681828 3.959466
1654544057.353130 0.023437 0.056461 -0.007457 -0.100686 8.681828 3.863262
1654544057.358131 0.019175 0.019175 0.004261 -0.034552 8.681828 3.767067
1654544057.363133 -0.024502 -0.057526 0.013849 0.132390 8.698613 3.670744
1654544057.368134 -0.020241 -0.029828 -0.004261 0.234644 8.704628 3.574505
1654544057.373136 0.013849 0.045808 -0.005326 0.336903 8.710643 3.478262
1654544057.378138 0.025567 0.037285 0.004261 -0.047791 8.653829 3.868968
1654544057.383140 -0.013849 -0.037285 0.008522 -0.131992 8.635786 3.959184
1654544057.388142 -0.027698 -0.045808 0.001065 -0.216198 8.617742 4.049405
1654544057.393143 0.006392 0.020241 -0.005326 -0.285779 8.658209 4.139629
1654544057.398144 0.025567 0.042612 -0.004261 -0.363973 8.664223 4.229852
1654544057.403147 -0.004261 -0.015979 0.008522 -0.442173 8.670239 4.320083
1654544057.408149 -0.030894 -0.042612 0.001065 -0.140966 8.716903 3.990255
1654544057.413150 -0.002131 0.002131 -0.004261 -0.050750 8.740961 3.894025
1654544057.418152 0.021306 0.045808 -0.003196 0.039470 8.765020 3.797790
1654544057.423153 0.005326 0.005326 0.007457 0.029931 8.714253 3.776371
1654544057.428155 -0.026632 -0.041547 0.004261 0.072034 8.702223 3.716224
1654544057.433157 -0.010653 -0.022371 -0.004261 0.114141 8.690193 3.656070
1654544057.438158 0.021306 0.033024 0.003196 -0.037443 8.655376 3.869364
1654544057.443160 0.009588 0.018110 0.000000 -0.097594 8.631316 3.953576
1654544057.448161 -0.019175 -0.033024 0.006392 -0.157743 8.607257 4.037784
1654544057.453163 -0.015979 -0.030894 -0.004261 -0.217897 8.583195 4.122000
1654544057.458165 0.018110 0.022371 0.004261 -0.245384 8.640789 4.124554
1654544057.463166 0.014914 0.033024 0.001065 -0.293503 8.646804 4.178688
1654544057.468168 -0.009588 -0.009588 0.001065 -0.341626 8.652820 4.232827
1654544057.473170 -0.021306 -0.041547 -0.004261 -0.069426 8.735102 3.920881
1654544057.478172 0.009588 0.004261 0.005326 0.008771 8.771193 3.830654
1654544057.483174 0.012784 0.035155 0.001065 0.086968 8.807284 3.740427
1654544057.488175 -0.009588 0.003196 0.000000 -0.004948 8.729970 3.806141
1654544057.493177 -0.018110 -0.034090 -0.001065 0.001066 8.717940 3.782082
1654544057.498178 0.009588 -0.011718 0.007457 0.007081 8.705911 3.758024
1654544057.503180 0.014914 0.029828 0.001065 -0.117858 8.654596 3.956587
1654544057.508182 0.002131 0.019175 -0.006392 -0.171993 8.624521 4.034782
1654544057.513184 -0.019175 -0.018110 0.001065 -0.226125 8.594448 4.112973
1654544057.518185 -0.003196 -0.021306 0.003196 -0.172107 8.648490 4.046962
1654544057.523187 0.012784 0.011718 0.000000 -0.172107 8.660519 4.052977
1654544057.528188 0.001065 0.028763 -0.003196 -0.172107 8.672548 4.058992
1654544057.533190 -0.014914 -0.004261 -0.004261 -0.172107 8.684577 4.065006
1654544057.538192 -0.007457 -0.022371 0.007457 -0.019528 8.730517 3.850631
1654544057.543193 0.010653 -0.006392 0.008522 0.034609 8.754578 3.778448
1654544057.548196 0.003196 0.022371 -0.004261 0.088751 8.778641 3.706258
1654544057.553197 -0.008522 0.019175 -0.006392 -0.095251 8.723321 3.903970
1654544057.558199 -0.006392 -0.015979 0.002131 -0.131341 8.717306 3.934044
1654544057.563200 0.007457 -0.023437 0.011718 -0.167428 8.711291 3.964117
1654544057.568202 -0.001065 0.010653 -0.002131 -0.188722 8.631292 4.023786
1654544057.573204 -0.003196 0.018110 -0.009588 -0.218796 8.595203 4.065890
1654544057.578205 -0.009588 -0.007457 0.000000 -0.248869 8.559115 4.107992
1654544057.583207 0.005326 -0.021306 0.009588 -0.100599 8.660213 3.958034
1654544057.588209 0.000000 -0.004261 0.004261 -0.052476 8.684274 3.915927
1654544057.593210 -0.003196 0.020241 -0.009588 -0.004356 8.708334 3.873822
1654544057.598212 -0.008522 0.011718 -0.005326 -0.044726 8.732400 3.856993
1654544057.603214 0.004261 -0.015979 0.012784 -0.038710 8.756463 3.826913
1654544057.608216 -0.002131 -0.018110 0.005326 -0.032694 8.780528 3.796832
1654544057.613217 -0.008522 0.012784 -0.011718 -0.153913 8.723618 3.940261
1654544057.618219 -0.001065 0.023437 -0.007457 -0.214064 8.705573 4.000411
1654544057.623220 0.005326 -0.004261 0.008522 -0.274217 8.687527 4.060565
1654544057.628222 0.000000 -0.029828 0.015979 -0.334376 8.669479 4.120724
1654544057.633224 -0.009588 -0.002131 -0.010653 -0.146958 8.634936 4.032327
1654544057.638226 0.004261 0.026632 -0.014914 -0.116884 8.610877 4.038341
1654544057.643227 0.007457 0.015979 0.007457 -0.086812 8.586819 4.044356
1654544057.648229 0.001065 -0.024502 0.013849 0.020385 8.670732 3.834426
1654544057.653231 -0.011718 -0.023437 0.002131 0.080536 8.688778 3.756230
1654544057.658232 -0.002131 0.021306 -0.014914 0.140681 8.706821 3.678042
1654544057.663234 0.009588 0.030894 0.006392 -0.043047 8.710517 3.815038
1654544057.668236 0.000000 -0.011718 0.014914 -0.085148 8.722546 3.827066
1654544057.673237 -0.013849 -0.037285 0.004261 -0.127248 8.734574 3.839095
1654544057.678239 -0.004261 0.008522 -0.014914 -0.262232 8.706806 4.063402
1654544057.683240 0.013849 0.042612 -0.006392 -0.346441 8.700791 4.171672
1654544057.688242 0.006392 0.000000 0.019175 -0.430655 8.694775 4.279946
1654544057.693244 -0.017045 -0.042612 0.006392 -0.161358 8.664379 4.010332
1654544057.698246 -0.012784 -0.018110 -0.012784 -0.071132 8.646334 3.932137
1654544057.703247 0.012784 0.043677 -0.011718 0.019093 8.628289 3.853941
1654544057.708249 0.017045 0.025567 0.014914 0.109323 8.610243 3.775742
1654544057.713251 -0.015979 -0.040481 0.009588 0.148156 8.694962 3.697556
1654544057.718252 -0.020241 -0.038351 -0.010653 0.220336 8.713007 3.619362
1654544057.723254 0.006392 0.028763 -0.011718 0.292515 8.731051 3.541167
1654544057.728256 0.024502 0.049004 0.011718 -0.164942 8.684900 3.944458
1654544057.733257 -0.006392 -0.021306 0.014914 -0.291266 8.678885 4.046720
1654544057.738259 -0.027698 -0.054330 -0.006392 -0.417589 8.672870 4.148983
1654544057.743261 0.001065 0.008522 -0.020241 -0.364222 8.666855 4.176362
1654544057.748262 0.024502 0.056461 0.006392 -0.418353 8.660840 4.248537
1654544057.753264 -0.002131 0.003196 0.021306 -0.472490 8.654824 4.320719
1654544057.758266 -0.028763 -0.064983 0.001065 -0.054230 8.690492 3.948294
1654544057.763267 -0.008522 -0.026632 -0.017045 0.096142 8.702522 3.827997
1654544057.768269 0.027698 0.054330 0.002131 0.246527 8.714553 3.707688
1654544057.773271 0.009588 0.035155 0.018110 0.166201 8.713765 3.715561
1654544057.778273 -0.021306 -0.047938 0.004261 0.208304 8.719780 3.655414
1654544057.783274 -0.020241 -0.044742 -0.015979 0.250404 8.725794 3.595270
1654544057.788276 0.021306 0.041547 -0.002131 -0.130018 8.684862 3.910699
1654544057.793278 0.019175 0.059657 0.018110 -0.304451 8.666817 4.043028
1654544057.798279 -0.022371 -0.028763 0.009588 -0.478885 8.648772 4.175357
1654544057.803281 -0.023437 -0.067114 -0.013849 -0.653319 8.630727 4.307686
1654544057.808283 0.017045 0.019175 -0.005326 -0.410916 8.679380 4.223272
1654544057.813284 0.026632 0.071375 0.013849 -0.434977 8.685396 4.277410
1654544057.818286 -0.012784 -0.003196 0.012784 -0.459039 8.691412 4.331550
1654544057.823288 -0.028763 -0.074571 -0.006392 0.078468 8.728625 3.855320
1654544057.828289 0.006392 -0.013849 -0.010653 0.270955 8.746670 3.704939
1654544057.833291 0.028763 0.075636 0.007457 0.463451 8.764716 3.554551
1654544057.838293 -0.004261 0.025567 0.017045 0.205751 8.710154 3.694620
1654544057.843295 -0.031959 -0.068179 -0.005326 0.211765 8.698124 3.664546
1654544057.848296 -0.004261 -0.044742 -0.009588 0.217780 8.686095 3.634473
1654544057.853298 0.025567 0.060722 0.003196 -0.219778 8.647184 4.021091
1654544057.858299 0.007457 0.060722 0.015979 -0.412245 8.623125 4.177471
1654544057.863301 -0.029828 -0.052200 -0.003196 -0.604712 8.599067 4.333850
1654544057.868303 -0.013849 -0.064983 -0.009588 -0.401582 8.649182 4.181169
1654544057.873305 0.022371 0.037285 0.001065 -0.401582 8.661210 4.187184
1654544057.878306 0.013849 0.074571 0.012784 -0.401582 8.673239 4.193198
1654544057.883308 -0.022371 -0.023437 -0.005326 -0.006643 8.707840 3.894546
1654544057.888310 -0.019175 -0.079897 -0.004261 0.203894 8.731901 3.738148
1654544057.893311 0.012784 0.004261 0.001065 0.414430 8.755963 3.581749
1654544057.898313 0.013849 0.083093 0.011718 0.624967 8.780024 3.425351
1654544057.903315 -0.011718 0.009588 0.001065 0.170385 8.722973 3.723178
1654544057.908316 -0.023437 -0.080963 -0.006392 0.134293 8.716958 3.735209
1654544057.913318 0.010653 -0.033024 0.000000 0.098202 8.710942 3.747239
1654544057.918320 0.019175 0.076701 0.008522 -0.316517 8.629202 4.107608
1654544057.923321 -0.004261 0.043677 0.002131 -0.502995 8.593109 4.257994
1654544057.928323 -0.026632 -0.068179 -0.006392 -0.689464 8.557019 4.408372
1654544057.933325 0.003196 -0.055395 0.001065 -0.397624 8.661607 4.178917
1654544057.938327 0.018110 0.061787 0.011718 -0.379576 8.685672 4.166885
1654544057.943328 -0.001065 0.064983 -0.001065 -0.361531 8.709732 4.154855
1654544057.948330 -0.018110 -0.042612 -0.005326 0.059254 8.720802 3.805043
1654544057.953332 -0.002131 -0.083093 -0.001065 0.263778 8.738848 3.636611
1654544057.958333 0.012784 0.027698 0.008522 0.468293 8.756893 3.468188
1654544057.963335 0.003196 0.080963 0.003196 0.184325 8.739196 3.716761
1654544057.968337 -0.009588 -0.017045 -0.005326 0.142217 8.739196 3.758868
1654544057.973338 -0.009588 -0.090550 -0.003196 0.100114 8.739196 3.800971
1654544057.978340 0.006392 -0.003196 0.009588 0.058011 8.739196 3.843074
1654544057.983341 0.003196 0.078832 0.003196 -0.371616 8.638101 4.171606
1654544057.988343 -0.006392 0.015979 -0.009588 -0.552059 8.602012 4.315961
1654544057.993345 -0.009588 -0.084158 -0.003196 -0.732503 8.565923 4.460316
1654544057.998347 0.002131 -0.029828 0.009588 -0.345211 8.640228 4.084250
1654544058.003348 0.002131 0.069244 0.006392 -0.309125 8.646242 4.030121
1654544058.008350 -0.002131 0.045808 -0.007457 -0.273039 8.652257 3.975992
1654544058.013352 -0.008522 -0.063918 -0.006392 0.100945 8.731726 3.745561
1654544058.018353 -0.004261 -0.057526 0.011718 0.275367 8.767814 3.619255
1654544058.023355 0.004261 0.051134 0.009588 0.449790 8.803901 3.492949
1654544058.028357 0.006392 0.063918 -0.008522 0.120575 8.758319 3.775000
1654544058.033359 -0.003196 -0.038351 -0.012784 0.072452 8.758319 3.829138
1654544058.038360 0.000000 -0.071375 0.006392 0.024336 8.758319 3.883268
1654544058.043362 -0.004261 0.018110 0.015979 -0.249380 8.658051 4.087798
1654544058.048363 -0.003196 0.075636 -0.007457 -0.405760 8.609934 4.214104
1654544058.053365 0.002131 -0.006392 -0.013849 -0.562139 8.561817 4.340411
1654544058.058367 0.003196 -0.069244 0.008522 -0.306151 8.639701 4.077255
1654544058.063369 -0.007457 -0.007457 0.017045 -0.245992 8.657749 3.999048
1654544058.068370 0.001065 0.060722 -0.006392 -0.185838 8.675795 3.920849
1654544058.073372 0.009588 0.013849 -0.013849 -0.125685 8.693840 3.842649
1654544058.078374 -0.002131 -0.064983 0.005326 0.065663 8.711894 3.698835
1654544058.083375 -0.013849 -0.025567 0.019175 0.173956 8.729942 3.596559
1654544058.088377 -0.012784 0.052200 -0.002131 0.282243 8.747990 3.494287
1654544058.093379 0.012784 0.037285 -0.019175 0.038120 8.750720 3.867016
1654544058.098380 0.007457 -0.052200 -0.003196 0.008035 8.762754 3.951255
1654544058.103382 -0.003196 -0.046873 0.022371 -0.022048 8.774787 4.035487
1654544058.108384 -0.008522 0.034090 0.010653 -0.223110 8.658576 4.105445
1654544058.113385 0.006392 0.049004 -0.017045 -0.325376 8.616466 4.183649
1654544058.118387 0.008522 -0.025567 -0.004261 -0.427653 8.574353 4.261861
1654544058.123389 -0.006392 -0.045808 0.015979 -0.226927 8.637632 3.984379
1654544058.128390 -0.015979 0.013849 0.014914 -0.190831 8.643648 3.900156
1654544058.133392 -0.002131 0.043677 -0.017045 -0.154734 8.649664 3.815930
1654544058.138394 0.017045 -0.005326 -0.017045 -0.058125 8.704083 3.816382
1654544058.143396 0.004261 -0.038351 0.014914 0.008061 8.734168 3.774264
1654544058.148397 -0.021306 -0.003196 0.021306 0.074244 8.764251 3.732148
1654544058.153399 -0.009588 0.036220 -0.011718 0.140433 8.794337 3.690027
1654544058.158401 0.014914 0.009588 -0.015979 -0.032000 8.739196 3.971718
1654544058.163402 0.010653 -0.030894 0.009588 -0.050048 8.739196 4.043909
1654544058.168404 -0.019175 -0.013849 0.023437 -0.068094 8.739196 4.116092
1654544058.173405 -0.012784 0.025567 -0.001065 -0.134028 8.659378 4.060555
1654544058.178407 0.010653 0.015979 -0.018110 -0.170120 8.629302 4.084616
1654544058.183409 0.014914 -0.026632 0.004261 -0.206211 8.599226 4.108677
1654544058.188411 -0.013849 -0.017045 0.020241 -0.167869 8.658466 3.894563
1654544058.193412 -0.022371 0.014914 0.005326 -0.173884 8.664481 3.822383
1654544058.198414 0.005326 0.008522 -0.025567 -0.179899 8.670496 3.750204
1654544058.203416 0.019175 -0.007457 -0.006392 -0.144494 8.676511 3.871330
1654544058.208417 -0.010653 -0.007457 0.025567 -0.132464 8.682526 3.883359
1654544058.213419 -0.023437 0.007457 0.010653 -0.120436 8.688541 3.895388
1654544058.218421 0.001065 0.002131 -0.018110 -0.108405 8.694555 3.983784
1654544058.223423 0.020241 -0.006392 -0.014914 -0.096376 8.700569 4.031902
1654544058.228424 0.006392 -0.001065 0.023437 -0.084346 8.706584 4.080020
1654544058.233426 -0.024502 0.005326 0.018110 -0.037369 8.700950 3.999998
1654544058.238428 -0.006392 -0.001065 -0.012784 -0.007294 8.700950 3.981954
1654544058.243429 0.025567 -0.006392 -0.017045 0.022779 8.700950 3.963910
1654544058.248431 0.010653 0.006392 0.013849 0.052853 8.700950 3.945866
1654544058.253433 -0.022371 0.004261 0.021306 -0.116086 8.667782 3.861492
1654544058.258434 -0.014914 -0.006392 -0.006392 -0.158185 8.655754 3.819392
1654544058.263436 0.015979 -0.018110 -0.023437 -0.200285 8.643725 3.777293
1654544058.268437 0.015979 0.009588 0.005326 -0.257897 8.647200 3.921239
1654544058.273439 -0.015979 0.021306 0.023437 -0.306017 8.641185 3.951314
1654544058.278441 -0.023437 -0.007457 -0.002131 -0.354135 8.635170 3.981388
1654544058.283443 0.012784 -0.026632 -0.021306 -0.157005 8.686861 4.025891
1654544058.288444 0.020241 0.009588 -0.004261 -0.102871 8.704905 4.061980
1654544058.293446 -0.007457 0.036220 0.023437 -0.048739 8.722949 4.098068
1654544058.298448 -0.023437 -0.002131 0.007457 0.085488 8.727647 3.893888
1654544058.303449 0.000000 -0.038351 -0.021306 0.175714 8.739677 3.821708
1654544058.308451 0.025567 -0.002131 -0.006392 0.265939 8.751707 3.749527
1654544058.313452 -0.006392 0.041547 0.018110 -0.011930 8.702389 3.836863
1654544058.318454 -0.021306 0.011718 0.011718 -0.102148 8.684346 3.842877
1654544058.323456 -0.002131 -0.047938 -0.010653 -0.192370 8.666301 3.848892
1654544058.328457 0.021306 -0.027698 -0.007457 -0.316149 8.637069 4.000370
1654544058.333459 0.005326 0.044742 0.008522 -0.424417 8.613009 4.084578
1654544058.338461 -0.022371 0.036220 0.013849 -0.532680 8.588951 4.168782
1654544058.343463 -0.013849 -0.041547 -0.010653 -0.640942 8.564892 4.252986
1654544058.348464 0.014914 -0.044742 -0.015979 -0.168706 8.669834 4.030815
1654544058.353466 0.008522 0.034090 0.011718 -0.060447 8.693892 4.000743
1654544058.358468 -0.015979 0.051134 0.013849 0.047818 8.717951 3.970669
1654544058.363470 -0.014914 -0.030894 -0.002131 0.246332 8.742005 3.760066
1654544058.368471 0.009588 -0.064983 -0.009588 0.390664 8.766061 3.657830
1654544058.373473 0.014914 0.019175 0.005326 0.534996 8.790116 3.555595
1654544058.378474 -0.014914 0.076701 0.011718 -0.018801 8.716432 3.858278
1654544058.383476 -0.008522 -0.006392 0.002131 -0.175154 8.698392 3.930441
1654544058.388478 0.005326 -0.078832 -0.009588 -0.331507 8.680351 4.002604
1654544058.393480 0.014914 -0.012784 0.003196 -0.449225 8.623670 4.113409
1654544058.398481 -0.011718 0.074571 0.007457 -0.587539 8.587588 4.203614
1654544058.403483 -0.013849 0.022371 0.000000 -0.725847 8.551508 4.293814
1654544058.408485 0.002131 -0.077767 -0.011718 -0.238815 8.633411 4.041854
1654544058.413486 0.011718 -0.041547 0.001065 -0.058386 8.657468 3.957654
1654544058.418488 -0.002131 0.076701 0.011718 0.122060 8.681528 3.873446
1654544058.423490 -0.010653 0.060722 0.004261 0.302498 8.705586 3.789242
1654544058.428492 0.000000 -0.068179 -0.007457 0.349093 8.746390 3.638063
1654544058.433493 0.007457 -0.074571 0.002131 0.481420 8.776464 3.529796
1654544058.438495 -0.004261 0.038351 0.005326 0.613747 8.806538 3.421529
1654544058.443496 -0.007457 0.092681 0.002131 -0.068129 8.742662 3.939573
1654544058.448498 -0.002131 -0.037285 -0.009588 -0.248562 8.736647 4.071890
1654544058.453500 0.003196 -0.098007 0.000000 -0.428994 8.730633 4.204207
1654544058.458502 -0.009588 0.019175 0.008522 -0.536563 8.607992 4.234497
1654544058.463503 -0.006392 0.105464 0.005326 -0.686923 8.553863 4.324713
1654544058.468505 0.001065 0.001065 -0.006392 -0.837290 8.499731 4.414933
1654544058.473507 0.009588 -0.107595 -0.003196 -0.191213 8.634584 3.965191
1654544058.478508 -0.009588 -0.023437 0.008522 0.013276 8.664656 3.814832
1654544058.483510 -0.003196 0.095877 0.001065 0.217775 8.694729 3.664465
1654544058.488512 0.007457 0.038351 -0.004261 0.273264 8.737230 3.663119
1654544058.493513 0.002131 -0.093746 -0.003196 0.405590 8.773320 3.584926
1654544058.498515 -0.009588 -0.057526 0.010653 0.537923 8.809411 3.506729
1654544058.503517 -0.012784 0.086289 0.006392 0.023734 8.743416 3.893571
1654544058.508518 0.008522 0.076701 -0.005326 -0.186773 8.725372 4.061977
1654544058.513520 0.014914 -0.060722 -0.001065 -0.397280 8.707329 4.230383
1654544058.518522 -0.012784 -0.086289 0.008522 -0.607777 8.689286 4.398781
1654544058.523524 -0.008522 0.044742 0.006392 -0.525321 8.638684 4.241660
1654544058.528525 0.008522 0.093746 -0.007457 -0.627572 8.608610 4.289778
1654544058.533527 0.014914 -0.030894 -0.003196 -0.729818 8.578538 4.337894
1654544058.538528 -0.011718 -0.098007 0.010653 -0.087318 8.639657 3.838847
1654544058.543530 -0.020241 0.010653 0.010653 0.105148 8.645672 3.670439
1654544058.548532 -0.001065 0.099073 -0.008522 0.297633 8.651687 3.502015
1654544058.553533 0.024502 0.012784 -0.003196 0.264197 8.742435 3.644247
1654544058.558535 -0.002131 -0.100138 0.010653 0.360454 8.784547 3.608151
1654544058.563537 -0.022371 -0.021306 0.008522 0.456698 8.826654 3.572059
1654544058.568539 -0.005326 0.088420 -0.010653 -0.047130 8.738307 3.979495
1654544058.573540 0.022371 0.036220 -0.008522 -0.227582 8.720262 4.147916
1654544058.578542 0.007457 -0.079897 0.005326 -0.408033 8.702217 4.316338
1654544058.583544 -0.025567 -0.053265 0.015979 -0.408976 8.672206 4.197551
1654544058.588545 -0.012784 0.071375 -0.006392 -0.499202 8.648146 4.221611
1654544058.593547 0.024502 0.064983 -0.009588 -0.589427 8.624086 4.245671
1654544058.598549 0.013849 -0.055395 0.004261 -0.679653 8.600026 4.269731
1654544058.603550 -0.021306 -0.072440 0.013849 -0.042974 8.660486 3.786640
1654544058.608552 -0.020241 0.043677 0.002131 0.125452 8.666501 3.630244
1654544058.613554 0.018110 0.077767 -0.014914 0.293886 8.672516 3.473841
1654544058.618555 0.022371 -0.027698 0.004261 0.209041 8.726010 3.697326
1654544058.623557 -0.011718 -0.084158 0.019175 0.281219 8.750069 3.685296
1654544058.628559 -0.025567 0.013849 0.004261 0.353396 8.774129 3.673267
1654544058.633561 0.000000 0.075636 -0.015979 -0.105369 8.709698 4.059449
1654544058.638562 0.030894 0.002131 -0.004261 -0.249721 8.697669 4.209815
1654544058.643564 -0.002131 -0.076701 0.015979 -0.394087 8.685638 4.360197
1654544058.648566 -0.031959 -0.010653 0.006392 -0.333381 8.673610 4.168807
1654544058.653567 -0.002131 0.067114 -0.012784 -0.387514 8.661580 4.168807
1654544058.658569 0.034090 0.020241 -0.010653 -0.441647 8.649551 4.168807
1654544058.663570 0.003196 -0.061787 0.012784 -0.155862 8.662704 3.891854
1654544058.668572 -0.030894 -0.034090 0.014914 -0.047614 8.662704 3.759552
1654544058.673574 -0.013849 0.055395 -0.005326 0.060634 8.662704 3.627249
1654544058.678575 0.035155 0.042612 -0.013849 0.076827 8.685718 3.725087
1654544058.683577 0.013849 -0.047938 0.008522 0.136970 8.697747 3.713058
1654544058.688579 -0.029828 -0.044742 0.013849 0.197111 8.709775 3.701030
1654544058.693581 -0.023437 0.033024 -0.005326 0.257251 8.721803 3.689002
1654544058.698582 0.021306 0.051134 -0.013849 -0.110088 8.717392 4.088021
1654544058.703584 0.025567 -0.024502 0.008522 -0.206321 8.723406 4.226357
1654544058.708586 -0.021306 -0.052200 0.020241 -0.302560 8.729421 4.364699
1654544058.713587 -0.031959 0.009588 0.001065 -0.275877 8.689350 4.118961
1654544058.718589 0.017045 0.051134 -0.019175 -0.323990 8.677322 4.106932
1654544058.723591 0.036220 -0.009588 -0.002131 -0.372103 8.665294 4.094904
1654544058.728593 -0.015979 -0.046873 0.017045 -0.120288 8.667544 3.840060
1654544058.733594 -0.037285 0.000000 0.009588 -0.042094 8.661528 3.725777
1654544058.738596 0.003196 0.038351 -0.015979 0.036095 8.655514 3.611501
1654544058.743598 0.034090 0.009588 -0.006392 0.008650 8.675908 3.787713
1654544058.748599 -0.001065 -0.041547 0.017045 0.038723 8.681923 3.805757
1654544058.753601 -0.036220 -0.015979 0.011718 0.068794 8.687938 3.823800
1654544058.758602 -0.008522 0.033024 -0.010653 -0.046622 8.693951 3.975205
1654544058.763604 0.033024 0.014914 -0.011718 -0.088722 8.699965 4.059407
1654544058.768605 0.006392 -0.024502 0.006392 -0.130821 8.705979 4.143605
1654544058.773607 -0.033024 -0.019175 0.013849 -0.172924 8.711993 4.227811
1654544058.778609 -0.018110 0.018110 -0.002131 -0.180908 8.683892 4.056133
1654544058.783611 0.034090 0.022371 -0.012784 -0.210981 8.677877 4.050119
1654544058.788613 0.017045 -0.010653 0.005326 -0.241054 8.671863 4.044104
1654544058.793614 -0.028763 -0.019175 0.013849 -0.127316 8.681828 3.846350
1654544058.798616 -0.024502 0.006392 -0.005326 -0.103260 8.681828 3.768167
1654544058.803617 0.022371 0.018110 -0.012784 -0.079204 8.681828 3.689987
1654544058.808619 0.026632 -0.006392 0.000000 -0.129638 8.652027 3.850171
1654544058.813621 -0.021306 -0.010653 0.014914 -0.135653 8.639996 3.868217
1654544058.818623 -0.030894 0.002131 0.002131 -0.141668 8.627966 3.886262
1654544058.823624 0.012784 0.005326 -0.010653 -0.106219 8.671224 4.001049
1654544058.828626 0.027698 -0.003196 -0.007457 -0.094190 8.683253 4.061194
1654544058.833628 -0.008522 -0.009588 0.013849 -0.082161 8.695282 4.121339
1654544058.838629 -0.031959 0.004261 0.009588 -0.095615 8.707312 4.015842
1654544058.843631 0.002131 0.003196 -0.007457 -0.095615 8.719342 3.997797
1654544058.848633 0.028763 0.003196 -0.007457 -0.095615 8.731372 3.979751
1654544058.853634 0.006392 0.000000 0.011718 -0.119187 8.708287 3.914198
1654544058.858473 -0.031959 0.000000 0.004261 -0.130945 8.702407 3.873044
1654544058.863474 -0.010653 0.001065 -0.004261 -0.143100 8.696330 3.830502
1654544058.868476 0.030894 -0.012784 -0.007457 -0.155256 8.690252 3.787956
1654544058.873478 0.007457 -0.001065 0.006392 -0.183666 8.634544 3.912644
1654544058.878479 -0.028763 0.015979 0.010653 -0.201709 8.610486 3.930688
1654544058.883481 -0.017045 -0.002131 -0.003196 -0.219753 8.586427 3.948732
1654544058.888483 0.023437 -0.015979 -0.006392 -0.067035 8.671032 4.013354
1654544058.893484 0.015979 0.000000 0.003196 -0.018914 8.689077 4.049445
1654544058.898486 -0.023437 0.020241 0.006392 0.029212 8.707124 4.085539
1654544058.903488 -0.015979 0.000000 0.006392 0.033985 8.725166 3.904930
1654544058.908489 0.018110 -0.023437 -0.003196 0.064061 8.743211 3.850793
1654544058.913491 0.015979 -0.007457 -0.004261 0.094135 8.761255 3.796661
1654544058.918493 -0.012784 0.031959 0.005326 -0.103045 8.739196 3.902943
1654544058.923494 -0.017045 0.009588 0.004261 -0.175225 8.739196 3.920988
1654544058.928496 0.007457 -0.037285 -0.004261 -0.247408 8.739196 3.939034
1654544058.933498 0.015979 -0.021306 -0.001065 -0.282711 8.653170 4.018524
1654544058.938499 -0.007457 0.029828 0.001065 -0.336839 8.611071 4.066637
1654544058.943501 -0.023437 0.034090 0.005326 -0.390970 8.568969 4.114753
1654544058.948503 0.007457 -0.022371 0.005326 -0.131226 8.650175 3.994723
1654544058.953504 0.013849 -0.039416 0.000000 -0.016946 8.674234 3.952620
1654544058.958506 -0.002131 0.023437 -0.001065 0.097335 8.698293 3.910516
1654544058.963508 -0.017045 0.052200 0.005326 0.211616 8.722353 3.868413
1654544058.968510 0.002131 -0.011718 0.004261 0.148273 8.762546 3.794038
1654544058.973511 0.010653 -0.058591 -0.001065 0.196384 8.792615 3.739912
1654544058.978513 -0.002131 0.003196 -0.002131 0.244494 8.822684 3.685789
1654544058.983515 -0.014914 0.060722 -0.002131 -0.204522 8.717181 3.963072
1654544058.988516 0.000000 0.010653 0.003196 -0.354888 8.693122 4.041262
1654544058.993518 0.011718 -0.060722 0.001065 -0.505262 8.669062 4.119457
1654544058.998519 0.001065 -0.020241 0.000000 -0.361912 8.631020 4.099739
1654544059.003521 -0.014914 0.064983 0.000000 -0.385973 8.600943 4.135831
1654544059.008523 -0.002131 0.036220 0.001065 -0.410032 8.570869 4.171920
1654544059.013525 0.008522 -0.055395 0.006392 -0.046788 8.644066 3.898173
1654544059.018526 -0.004261 -0.056461 0.003196 0.109630 8.662114 3.789884
1654544059.023528 -0.011718 0.047938 -0.006392 0.266048 8.680162 3.681595
1654544059.028530 0.001065 0.062853 -0.002131 0.173910 8.733710 3.739010
1654544059.033531 0.007457 -0.034090 0.003196 0.203987 8.769803 3.714948
1654544059.038533 0.000000 -0.074571 0.003196 0.234064 8.805896 3.690886
1654544059.043535 -0.011718 0.020241 0.001065 0.264140 8.841987 3.666826
1654544059.048537 0.001065 0.078832 -0.003196 -0.309597 8.710351 4.129170
1654544059.053538 0.012784 -0.007457 0.003196 -0.496072 8.686290 4.279553
1654544059.058540 -0.006392 -0.085224 0.006392 -0.682547 8.662228 4.429937
1654544059.063541 -0.015979 -0.020241 0.000000 -0.382459 8.638168 4.156539
1654544059.068543 -0.001065 0.084158 -0.010653 -0.382459 8.614104 4.144507
1654544059.073545 0.013849 0.026632 0.002131 -0.382459 8.590044 4.132476
1654544059.078547 0.006392 -0.074571 0.011718 0.070761 8.682938 3.769564
1654544059.083548 -0.021306 -0.047938 0.003196 0.257250 8.707001 3.613153
1654544059.088550 -0.006392 0.069244 -0.008522 0.443731 8.731063 3.456750
1654544059.093552 0.021306 0.057526 0.001065 0.156176 8.700950 3.720207
1654544059.098553 0.004261 -0.058591 0.008522 0.132112 8.700950 3.750288
1654544059.103555 -0.019175 -0.069244 0.001065 0.108050 8.700950 3.780365
1654544059.108557 -0.014914 0.039416 -0.008522 -0.252622 8.713417 4.097183
1654544059.113558 0.021306 0.071375 -0.008522 -0.439091 8.719432 4.265607
1654544059.118560 0.015979 -0.025567 0.010653 -0.625560 8.725447 4.434031
1654544059.123562 -0.023437 -0.087354 0.006392 -0.379221 8.663123 4.158255
1654544059.128564 -0.025567 0.000000 -0.004261 -0.337114 8.633047 4.092086
1654544059.133565 0.014914 0.086289 -0.005326 -0.295009 8.602972 4.025921
1654544059.138567 0.022371 0.009588 0.005326 -0.252902 8.572895 3.959752
1654544059.143569 -0.018110 -0.085224 0.008522 0.181103 8.689773 3.648642
1654544059.148570 -0.028763 -0.025567 -0.007457 0.367584 8.713835 3.492239
1654544059.153572 0.005326 0.073505 -0.004261 0.554056 8.737896 3.335843
1654544059.158574 0.029828 0.045808 0.000000 0.115226 8.700950 3.774239
1654544059.163575 -0.010653 -0.066048 0.015979 0.055081 8.700950 3.852427
1654544059.168577 -0.031959 -0.052200 0.001065 -0.005064 8.700950 3.930615
1654544059.173579 0.000000 0.053265 -0.008522 -0.320285 8.700950 4.164689
1654544059.178580 0.033024 0.060722 0.001065 -0.488702 8.700950 4.309045
1654544059.183582 0.003196 -0.044742 0.011718 -0.657126 8.700950 4.453409
1654544059.188584 -0.028763 -0.068179 0.002131 -0.301859 8.687859 4.087179
1654544059.193585 -0.015979 0.026632 -0.009588 -0.229687 8.681845 3.996964
1654544059.198587 0.029828 0.079897 0.000000 -0.157515 8.675831 3.906749
1654544059.203589 0.017045 -0.013849 0.008522 0.058851 8.705854 3.756428
1654544059.208590 -0.030894 -0.076701 0.006392 0.203225 8.717885 3.636116
1654544059.213592 -0.019175 -0.003196 -0.009588 0.347607 8.729917 3.515798
1654544059.218594 0.025567 0.072440 -0.005326 0.491974 8.741947 3.395492
1654544059.223596 0.021306 0.014914 0.011718 0.026058 8.669218 3.834610
1654544059.228597 -0.026632 -0.072440 0.008522 -0.046123 8.651173 3.912805
1654544059.233599 -0.030894 -0.031959 -0.006392 -0.118303 8.633128 3.991001
1654544059.238600 0.020241 0.060722 -0.006392 -0.365076 8.694449 4.212043
1654544059.243602 0.029828 0.039416 0.005326 -0.503425 8.706480 4.344377
1654544059.248604 -0.013849 -0.054330 0.009588 -0.641767 8.718510 4.476704
1654544059.253606 -0.031959 -0.050069 -0.003196 -0.232686 8.686154 4.061607
1654544059.258607 0.002131 0.043677 -0.008522 -0.148474 8.680140 3.971380
1654544059.263609 0.035155 0.056461 0.000000 -0.064254 8.674124 3.881144
1654544059.268611 -0.007457 -0.029828 0.008522 0.088541 8.695545 3.708615
1654544059.273612 -0.035155 -0.058591 -0.001065 0.202827 8.701560 3.582299
1654544059.278614 -0.004261 0.017045 -0.006392 0.317108 8.707575 3.455990
1654544059.283616 0.033024 0.063918 0.003196 0.026892 8.650385 3.784739
1654544059.288617 0.007457 -0.005326 0.009588 -0.051315 8.626321 3.874977
1654544059.293619 -0.034090 -0.061787 0.002131 -0.129518 8.602259 3.965211
1654544059.298621 -0.009588 -0.011718 -0.008522 -0.253967 8.670716 4.101690
1654544059.303622 0.028763 0.055395 -0.005326 -0.356220 8.694776 4.215972
1654544059.308624 0.015979 0.014914 0.003196 -0.458477 8.718836 4.330260
1654544059.313626 -0.027698 -0.057526 0.009588 -0.560735 8.742897 4.444548
1654544059.318628 -0.024502 -0.028763 -0.005326 -0.167928 8.700950 3.997762
1654544059.323629 0.020241 0.051134 0.000000 -0.089732 8.700950 3.907537
1654544059.328631 0.026632 0.037285 0.000000 -0.011533 8.700950 3.817307
1654544059.333632 -0.021306 -0.040481 0.004261 0.097538 8.700950 3.711629
1654544059.338634 -0.029828 -0.041547 0.000000 0.187776 8.700950 3.615375
1654544059.343636 0.011718 0.025567 -0.003196 0.278010 8.700950 3.519126
1654544059.348638 0.026632 0.050069 0.004261 -0.062729 8.672188 3.868199
1654544059.353639 -0.012784 -0.015979 0.004261 -0.153153 8.660131 3.958624
1654544059.358641 -0.029828 -0.049004 -0.002131 -0.243578 8.648075 4.049048
1654544059.363607 0.001065 0.002131 -0.003196 -0.253299 8.662704 4.125123
1654544059.368609 0.027698 0.044742 0.000000 -0.307434 8.662704 4.209334
1654544059.373610 0.001065 0.007457 0.008522 -0.361567 8.662704 4.293541
1654544059.378612 -0.033024 -0.041547 -0.001065 -0.159637 8.699286 4.011946
1654544059.383614 -0.001065 -0.022371 0.001065 -0.087454 8.717332 3.915701
1654544059.388616 0.024502 0.035155 -0.001065 -0.015266 8.735379 3.819451
1654544059.393617 0.006392 0.020241 0.000000 0.056917 8.753425 3.723207
1654544059.398619 -0.023437 -0.031959 0.003196 0.043440 8.720073 3.729755
1654544059.403621 -0.013849 -0.023437 0.000000 0.085548 8.720073 3.669599
1654544059.408622 0.021306 0.021306 0.005326 0.127655 8.720073 3.609447
1654544059.413624 0.015979 0.030894 -0.002131 -0.103197 8.655847 3.950705
1654544059.418626 -0.020241 -0.017045 -0.003196 -0.163355 8.631784 4.040942
1654544059.423627 -0.015979 -0.037285 0.002131 -0.223508 8.607723 4.131170
1654544059.428629 0.011718 0.006392 0.003196 -0.208764 8.658561 4.101564
1654544059.433631 0.018110 0.031959 0.001065 -0.238843 8.664577 4.143675
1654544059.438633 -0.011718 0.001065 -0.001065 -0.268923 8.670593 4.185787
1654544059.443634 -0.020241 -0.026632 0.000000 -0.104330 8.704419 3.921985
1654544059.448636 0.010653 -0.013849 0.006392 -0.050191 8.722465 3.831754
1654544059.453637 0.017045 0.023437 0.003196 0.003947 8.740512 3.741523
1654544059.458639 -0.004261 0.015979 -0.004261 -0.031711 8.720073 3.792401
1654544059.463641 -0.022371 -0.019175 0.002131 -0.019679 8.720073 3.768337
1654544059.468643 0.001065 -0.019175 0.006392 -0.007648 8.720073 3.744275
1654544059.473644 0.014914 0.012784 0.005326 -0.113136 8.673067 3.931747
1654544059.478646 -0.004261 0.023437 -0.006392 -0.161258 8.649006 4.015960
1654544059.483648 -0.015979 -0.010653 -0.007457 -0.209375 8.624947 4.100165
1654544059.488649 -0.002131 -0.022371 0.009588 -0.257495 8.600888 4.184375
1654544059.493651 0.013849 -0.006392 0.009588 -0.155419 8.660268 4.034946
1654544059.498653 0.001065 0.020241 -0.008522 -0.149405 8.666282 4.034946
1654544059.503654 -0.013849 0.011718 -0.006392 -0.143390 8.672296 4.034946
1654544059.508656 -0.005326 -0.018110 0.008522 -0.043714 8.709533 3.863237
1654544059.513658 0.009588 -0.019175 0.011718 -0.001610 8.727578 3.797073
1654544059.518659 -0.002131 0.015979 -0.006392 0.040497 8.745624 3.730905
1654544059.523661 -0.006392 0.020241 -0.010653 -0.120845 8.720073 3.911783
1654544059.528663 -0.001065 -0.006392 0.003196 -0.162947 8.720073 3.947872
1654544059.533665 0.009588 -0.025567 0.012784 -0.205054 8.720073 3.983963
1654544059.538666 -0.001065 -0.001065 0.004261 -0.179893 8.639345 4.006605
1654544059.543668 -0.008522 0.019175 -0.011718 -0.191924 8.603251 4.036683
