idx,t,px,py,pz,vx,vy,vz,ax,ay,az,yaw,mode
0,0.0,0.0,0.0,-5,1.5204081632653061,1.5204081632653061,0.0,0.0,0.0,0.0,0.0,70
1,0.1342281879194631,0.20408163265306123,0.20408163265306123,-5,1.5204081632653061,1.5204081632653061,0.0,0.0,0.0,0.0,0.0,70
2,0.2684563758389262,0.40816326530612246,0.40816326530612246,-5,1.5204081632653064,1.5204081632653064,0.0,0.0,0.0,0.0,0.0,70
3,0.40268456375838924,0.6122448979591837,0.6122448979591837,-5,1.5204081632653061,1.5204081632653061,0.0,0.0,0.0,0.0,0.0,70
4,0.5369127516778524,0.8163265306122449,0.8163265306122449,-5,1.520408163265306,1.520408163265306,0.0,0.0,0.0,0.0,0.0,70
5,0.6711409395973155,1.0204081632653061,1.0204081632653061,-5,1.5204081632653064,1.5204081632653064,0.0,0.0,0.0,0.0,0.0,70
6,0.8053691275167785,1.2244897959183674,1.2244897959183674,-5,1.5204081632653064,1.5204081632653064,0.0,0.0,0.0,0.0,0.0,70
7,0.9395973154362416,1.4285714285714286,1.4285714285714286,-5,1.520408163265306,1.520408163265306,0.0,0.0,0.0,0.0,0.0,70
8,1.0738255033557047,1.6326530612244898,1.6326530612244898,-5,1.520408163265306,1.520408163265306,0.0,0.0,0.0,0.0,0.0,70
9,1.2080536912751678,1.836734693877551,1.836734693877551,-5,1.520408163265306,1.520408163265306,0.0,0.0,0.0,0.0,0.0,70
10,1.342281879194631,2.0408163265306123,2.0408163265306123,-5,1.5204081632653066,1.5204081632653066,0.0,0.0,0.0,0.0,0.0,70
11,1.476510067114094,2.2448979591836737,2.2448979591836737,-5,1.520408163265307,1.520408163265307,0.0,0.0,0.0,0.0,0.0,70
12,1.610738255033557,2.4489795918367347,2.4489795918367347,-5,1.5204081632653055,1.5204081632653055,0.0,0.0,0.0,0.0,0.0,70
13,1.74496644295302,2.6530612244897958,2.6530612244897958,-5,1.520408163265306,1.520408163265306,0.0,0.0,0.0,0.0,0.0,70
14,1.8791946308724832,2.857142857142857,2.857142857142857,-5,1.5204081632653061,1.5204081632653061,0.0,0.0,0.0,0.0,0.0,70
15,2.0134228187919465,3.0612244897959187,3.0612244897959187,-5,1.520408163265306,1.520408163265306,0.0,0.0,0.0,0.0,0.0,70
16,2.1476510067114094,3.2653061224489797,3.2653061224489797,-5,1.5204081632653066,1.5204081632653066,0.0,0.0,0.0,0.0,0.0,70
17,2.2818791946308723,3.4693877551020407,3.4693877551020407,-5,1.520408163265306,1.520408163265306,0.0,0.0,0.0,0.0,0.0,70
18,2.4161073825503356,3.673469387755102,3.673469387755102,-5,1.5204081632653075,1.5204081632653075,0.0,0.0,0.0,0.0,0.0,70
19,2.5503355704697985,3.8775510204081636,3.8775510204081636,-5,1.520408163265306,1.520408163265306,0.0,0.0,0.0,0.0,0.0,70
20,2.684563758389262,4.081632653061225,4.081632653061225,-5,1.5204081632653041,1.5204081632653041,0.0,0.0,0.0,0.0,0.0,70
21,2.8187919463087248,4.285714285714286,4.285714285714286,-5,1.5204081632653075,1.5204081632653075,0.0,0.0,0.0,0.0,0.0,70
22,2.953020134228188,4.4897959183673475,4.4897959183673475,-5,1.5204081632653075,1.5204081632653075,0.0,0.0,0.0,0.0,0.0,70
23,3.087248322147651,4.6938775510204085,4.6938775510204085,-5,1.5204081632653066,1.5204081632653066,0.0,0.0,0.0,0.0,0.0,70
24,3.221476510067114,4.8979591836734695,4.8979591836734695,-5,1.5204081632653041,1.5204081632653041,0.0,0.0,0.0,0.0,0.0,70
25,3.3557046979865772,5.1020408163265305,5.1020408163265305,-5,1.5204081632653041,1.5204081632653041,0.0,0.0,0.0,0.0,0.0,70
26,3.48993288590604,5.3061224489795915,5.3061224489795915,-5,1.5204081632653075,1.5204081632653075,0.0,0.0,0.0,0.0,0.0,70
27,3.6241610738255035,5.510204081632653,5.510204081632653,-5,1.5204081632653075,1.5204081632653075,0.0,0.0,0.0,0.0,0.0,70
28,3.7583892617449663,5.714285714285714,5.714285714285714,-5,1.5204081632653041,1.5204081632653041,0.0,0.0,0.0,0.0,0.0,70
29,3.8926174496644297,5.918367346938775,5.918367346938775,-5,1.520408163265305,1.520408163265305,0.0,0.0,0.0,0.0,0.0,70
30,4.026845637583893,6.122448979591837,6.122448979591837,-5,1.52040816326531,1.52040816326531,0.0,0.0,0.0,0.0,0.0,70
31,4.1610738255033555,6.326530612244898,6.326530612244898,-5,1.5204081632653066,1.5204081632653066,0.0,0.0,0.0,0.0,0.0,70
32,4.295302013422819,6.530612244897959,6.530612244897959,-5,1.5204081632653017,1.5204081632653017,0.0,0.0,0.0,0.0,0.0,70
33,4.429530201342282,6.73469387755102,6.73469387755102,-5,1.5204081632653066,1.5204081632653066,0.0,0.0,0.0,0.0,0.0,70
34,4.563758389261745,6.938775510204081,6.938775510204081,-5,1.52040816326531,1.52040816326531,0.0,0.0,0.0,0.0,0.0,70
35,4.697986577181208,7.142857142857143,7.142857142857143,-5,1.520408163265305,1.520408163265305,0.0,0.0,0.0,0.0,0.0,70
36,4.832214765100671,7.346938775510204,7.346938775510204,-5,1.5204081632653017,1.5204081632653017,0.0,0.0,0.0,0.0,0.0,70
37,4.966442953020135,7.551020408163265,7.551020408163265,-5,1.52040816326531,1.52040816326531,0.0,0.0,0.0,0.0,0.0,70
38,5.100671140939597,7.755102040816327,7.755102040816327,-5,1.52040816326531,1.52040816326531,0.0,0.0,0.0,0.0,0.0,70
39,5.23489932885906,7.959183673469388,7.959183673469388,-5,1.5204081632653017,1.5204081632653017,0.0,0.0,0.0,0.0,0.0,70
40,5.369127516778524,8.16326530612245,8.16326530612245,-5,1.5204081632653066,1.5204081632653066,0.0,0.0,0.0,0.0,0.0,70
41,5.503355704697986,8.36734693877551,8.36734693877551,-5,1.5204081632653066,1.5204081632653066,0.0,0.0,0.0,0.0,0.0,70
42,5.6375838926174495,8.571428571428571,8.571428571428571,-5,1.5204081632653017,1.5204081632653017,0.0,0.0,0.0,0.0,0.0,70
43,5.771812080536913,8.775510204081632,8.775510204081632,-5,1.5204081632653084,1.5204081632653084,0.0,0.0,0.0,0.0,0.0,70
44,5.906040268456376,8.979591836734695,8.979591836734695,-5,1.5204081632653133,1.5204081632653133,0.0,0.0,0.0,0.0,0.0,70
45,6.040268456375839,9.183673469387756,9.183673469387756,-5,1.5204081632653066,1.5204081632653066,0.0,0.0,0.0,0.0,0.0,70
46,6.174496644295302,9.387755102040817,9.387755102040817,-5,1.5204081632653017,1.5204081632653017,0.0,0.0,0.0,0.0,0.0,70
47,6.308724832214765,9.591836734693878,9.591836734693878,-5,1.5204081632653066,1.5204081632653066,0.0,0.0,0.0,0.0,0.0,70
48,6.442953020134228,9.795918367346939,9.795918367346939,-5,1.5204081632653066,1.5204081632653066,0.0,0.0,0.0,0.0,0.0,70
49,6.577181208053691,10.0,10.0,-5,0.7602040816326509,0.7602040816326509,0.0,0.0,0.0,0.0,0.0,70
50,6.7114093959731544,10.0,10.0,-5,-0.7602040816326509,0.7602040816326509,0.0,0.0,0.0,0.0,0.0,70
51,6.845637583892618,9.795918367346939,10.204081632653061,-5,-1.5204081632653066,1.5204081632653066,0.0,0.0,0.0,0.0,0.0,70
52,6.97986577181208,9.591836734693878,10.408163265306122,-5,-1.5204081632653066,1.5204081632653066,0.0,0.0,0.0,0.0,0.0,70
53,7.114093959731544,9.387755102040817,10.612244897959183,-5,-1.5204081632653017,1.5204081632653017,0.0,0.0,0.0,0.0,0.0,70
54,7.248322147651007,9.183673469387756,10.816326530612244,-5,-1.5204081632653084,1.5204081632653084,0.0,0.0,0.0,0.0,0.0,70
55,7.38255033557047,8.979591836734693,11.020408163265307,-5,-1.5204081632653133,1.5204081632653133,0.0,0.0,0.0,0.0,0.0,70
56,7.516778523489933,8.775510204081632,11.224489795918368,-5,-1.5204081632653066,1.5204081632653066,0.0,0.0,0.0,0.0,0.0,70
57,7.651006711409396,8.571428571428571,11.428571428571429,-5,-1.5204081632653017,1.5204081632653017,0.0,0.0,0.0,0.0,0.0,70
58,7.785234899328859,8.36734693877551,11.63265306122449,-5,-1.5204081632653066,1.5204081632653066,0.0,0.0,0.0,0.0,0.0,70
59,7.919463087248322,8.16326530612245,11.83673469387755,-5,-1.5204081632653017,1.5204081632653017,0.0,0.0,0.0,0.0,0.0,70
60,8.053691275167786,7.959183673469388,12.040816326530612,-5,-1.52040816326531,1.5204081632653133,0.0,0.0,0.0,0.0,0.0,70
61,8.187919463087248,7.755102040816326,12.244897959183675,-5,-1.520408163265315,1.5204081632653184,0.0,0.0,0.0,0.0,0.0,70
62,8.322147651006711,7.551020408163265,12.448979591836736,-5,-1.5204081632653017,1.5204081632653017,0.0,0.0,0.0,0.0,0.0,70
63,8.456375838926174,7.346938775510204,12.653061224489797,-5,-1.520408163265305,1.5204081632653017,0.0,0.0,0.0,0.0,0.0,70
64,8.590604026845638,7.142857142857142,12.857142857142858,-5,-1.520408163265305,1.5204081632653017,0.0,0.0,0.0,0.0,0.0,70
65,8.724832214765101,6.938775510204081,13.061224489795919,-5,-1.5204081632653017,1.5204081632653017,0.0,0.0,0.0,0.0,0.0,70
66,8.859060402684564,6.73469387755102,13.26530612244898,-5,-1.5204081632653017,1.5204081632653017,0.0,0.0,0.0,0.0,0.0,70
67,8.993288590604028,6.530612244897959,13.46938775510204,-5,-1.5204081632653117,1.5204081632653117,0.0,0.0,0.0,0.0,0.0,70
68,9.12751677852349,6.326530612244898,13.673469387755102,-5,-1.520408163265315,1.5204081632653117,0.0,0.0,0.0,0.0,0.0,70
69,9.261744966442953,6.122448979591836,13.877551020408163,-5,-1.520408163265305,1.5204081632653017,0.0,0.0,0.0,0.0,0.0,70
70,9.395973154362416,5.918367346938775,14.081632653061224,-5,-1.5204081632653017,1.5204081632653017,0.0,0.0,0.0,0.0,0.0,70
71,9.53020134228188,5.714285714285714,14.285714285714285,-5,-1.520408163265305,1.5204081632653084,0.0,0.0,0.0,0.0,0.0,70
72,9.664429530201343,5.5102040816326525,14.489795918367347,-5,-1.520408163265305,1.5204081632653084,0.0,0.0,0.0,0.0,0.0,70
73,9.798657718120806,5.3061224489795915,14.693877551020408,-5,-1.5204081632653017,1.5204081632653017,0.0,0.0,0.0,0.0,0.0,70
74,9.93288590604027,5.1020408163265305,14.89795918367347,-5,-1.5204081632653117,1.5204081632653117,0.0,0.0,0.0,0.0,0.0,70
75,10.06711409395973,4.8979591836734695,15.10204081632653,-5,-1.5204081632653117,1.5204081632653117,0.0,0.0,0.0,0.0,0.0,70
76,10.201342281879194,4.6938775510204085,15.306122448979592,-5,-1.520408163265305,1.5204081632653084,0.0,0.0,0.0,0.0,0.0,70
77,10.335570469798657,4.489795918367347,15.510204081632654,-5,-1.520408163265305,1.5204081632653084,0.0,0.0,0.0,0.0,0.0,70
78,10.46979865771812,4.285714285714286,15.714285714285715,-5,-1.5204081632653017,1.5204081632653017,0.0,0.0,0.0,0.0,0.0,70
79,10.604026845637584,4.081632653061225,15.918367346938776,-5,-1.520408163265305,1.5204081632653017,0.0,0.0,0.0,0.0,0.0,70
80,10.738255033557047,3.8775510204081627,16.122448979591837,-5,-1.520408163265305,1.5204081632653017,0.0,0.0,0.0,0.0,0.0,70
81,10.87248322147651,3.6734693877551017,16.3265306122449,-5,-1.5204081632653117,1.5204081632653117,0.0,0.0,0.0,0.0,0.0,70
82,11.006711409395972,3.4693877551020407,16.53061224489796,-5,-1.5204081632653117,1.5204081632653117,0.0,0.0,0.0,0.0,0.0,70
83,11.140939597315436,3.2653061224489797,16.73469387755102,-5,-1.5204081632653017,1.5204081632653017,0.0,0.0,0.0,0.0,0.0,70
84,11.275167785234899,3.0612244897959187,16.93877551020408,-5,-1.520408163265305,1.5204081632653017,0.0,0.0,0.0,0.0,0.0,70
85,11.409395973154362,2.8571428571428568,17.142857142857142,-5,-1.520408163265305,1.5204081632653017,0.0,0.0,0.0,0.0,0.0,70
86,11.543624161073826,2.6530612244897958,17.346938775510203,-5,-1.5204081632653017,1.5204081632653017,0.0,0.0,0.0,0.0,0.0,70
87,11.677852348993289,2.4489795918367347,17.551020408163264,-5,-1.520408163265305,1.5204081632653017,0.0,0.0,0.0,0.0,0.0,70
88,11.812080536912752,2.244897959183673,17.755102040816325,-5,-1.520408163265315,1.520408163265325,0.0,0.0,0.0,0.0,0.0,70
89,11.946308724832214,2.040816326530612,17.95918367346939,-5,-1.5204081632653117,1.5204081632653117,0.0,0.0,0.0,0.0,0.0,70
90,12.080536912751677,1.8367346938775508,18.163265306122447,-5,-1.5204081632653017,1.5204081632653017,0.0,0.0,0.0,0.0,0.0,70
91,12.21476510067114,1.6326530612244898,18.367346938775512,-5,-1.5204081632653017,1.5204081632653017,0.0,0.0,0.0,0.0,0.0,70
92,12.348993288590604,1.4285714285714288,18.57142857142857,-5,-1.5204081632653017,1.5204081632653017,0.0,0.0,0.0,0.0,0.0,70
93,12.483221476510067,1.2244897959183678,18.775510204081634,-5,-1.5204081632653084,1.5204081632653148,0.0,0.0,0.0,0.0,0.0,70
94,12.61744966442953,1.020408163265305,18.979591836734695,-5,-1.5204081632653084,1.5204081632653017,0.0,0.0,0.0,0.0,0.0,70
95,12.751677852348994,0.816326530612244,19.183673469387756,-5,-1.5204081632653117,1.5204081632653117,0.0,0.0,0.0,0.0,0.0,70
96,12.885906040268456,0.612244897959183,19.387755102040817,-5,-1.5204081632653117,1.5204081632653117,0.0,0.0,0.0,0.0,0.0,70
97,13.020134228187919,0.408163265306122,19.591836734693878,-5,-1.5204081632653017,1.5204081632653017,0.0,0.0,0.0,0.0,0.0,70
98,13.154362416107382,0.204081632653061,19.79591836734694,-5,-1.5204081632653017,1.5204081632653017,0.0,0.0,0.0,0.0,0.0,70
99,13.288590604026846,0.0,20.0,-5,-0.7602040816326509,0.7602040816326509,0.0,0.0,0.0,0.0,0.0,70
100,13.422818791946309,0.0,20.0,-5,0.7602040816326516,0.7602040816326509,0.0,0.0,0.0,0.0,0.0,70
101,13.557046979865772,0.20408163265306123,20.20408163265306,-5,1.5204081632653033,1.5204081632653017,0.0,0.0,0.0,0.0,0.0,70
102,13.691275167785236,0.40816326530612246,20.408163265306122,-5,1.5204081632653033,1.5204081632653017,0.0,0.0,0.0,0.0,0.0,70
103,13.825503355704699,0.6122448979591837,20.612244897959183,-5,1.5204081632653135,1.5204081632653117,0.0,0.0,0.0,0.0,0.0,70
104,13.95973154362416,0.8163265306122449,20.816326530612244,-5,1.5204081632653135,1.5204081632653117,0.0,0.0,0.0,0.0,0.0,70
105,14.093959731543624,1.0204081632653061,21.020408163265305,-5,1.5204081632653033,1.5204081632653017,0.0,0.0,0.0,0.0,0.0,70
106,14.228187919463087,1.2244897959183674,21.224489795918366,-5,1.5204081632653033,1.5204081632653017,0.0,0.0,0.0,0.0,0.0,70
107,14.36241610738255,1.4285714285714286,21.428571428571427,-5,1.5204081632653033,1.5204081632653017,0.0,0.0,0.0,0.0,0.0,70
108,14.496644295302014,1.6326530612244898,21.632653061224488,-5,1.5204081632653033,1.5204081632653148,0.0,0.0,0.0,0.0,0.0,70
109,14.630872483221477,1.836734693877551,21.836734693877553,-5,1.5204081632653033,1.5204081632653148,0.0,0.0,0.0,0.0,0.0,70
110,14.76510067114094,2.0408163265306123,22.040816326530614,-5,1.5204081632653141,1.5204081632653117,0.0,0.0,0.0,0.0,0.0,70
111,14.899328859060402,2.2448979591836737,22.244897959183675,-5,1.5204081632653135,1.5204081632653117,0.0,0.0,0.0,0.0,0.0,70
112,15.033557046979865,2.4489795918367347,22.448979591836736,-5,1.5204081632653017,1.5204081632653017,0.0,0.0,0.0,0.0,0.0,70
113,15.167785234899329,2.6530612244897958,22.653061224489797,-5,1.5204081632653033,1.5204081632653017,0.0,0.0,0.0,0.0,0.0,70
114,15.302013422818792,2.857142857142857,22.857142857142858,-5,1.520408163265305,1.5204081632653017,0.0,0.0,0.0,0.0,0.0,70
115,15.436241610738255,3.0612244897959187,23.06122448979592,-5,1.5204081632653033,1.5204081632653017,0.0,0.0,0.0,0.0,0.0,70
116,15.570469798657719,3.2653061224489797,23.26530612244898,-5,1.5204081632653017,1.5204081632653017,0.0,0.0,0.0,0.0,0.0,70
117,15.704697986577182,3.4693877551020407,23.46938775510204,-5,1.5204081632653135,1.5204081632653117,0.0,0.0,0.0,0.0,0.0,70
118,15.838926174496644,3.673469387755102,23.6734693877551,-5,1.520408163265315,1.5204081632653117,0.0,0.0,0.0,0.0,0.0,70
119,15.973154362416107,3.8775510204081636,23.877551020408163,-5,1.5204081632652933,1.5204081632652917,0.0,0.0,0.0,0.0,0.0,70
120,16.107382550335572,4.081632653061225,24.081632653061224,-5,1.5204081632653017,1.5204081632653017,0.0,0.0,0.0,0.0,0.0,70
121,16.241610738255034,4.285714285714286,24.285714285714285,-5,1.520408163265325,1.520408163265335,0.0,0.0,0.0,0.0,0.0,70
122,16.375838926174495,4.4897959183673475,24.48979591836735,-5,1.520408163265305,1.5204081632653017,0.0,0.0,0.0,0.0,0.0,70
123,16.51006711409396,4.6938775510204085,24.693877551020407,-5,1.5204081632653017,1.5204081632653017,0.0,0.0,0.0,0.0,0.0,70
124,16.644295302013422,4.8979591836734695,24.89795918367347,-5,1.5204081632653017,1.5204081632653017,0.0,0.0,0.0,0.0,0.0,70
125,16.778523489932887,5.1020408163265305,25.10204081632653,-5,1.5204081632653017,1.5204081632653017,0.0,0.0,0.0,0.0,0.0,70
126,16.91275167785235,5.3061224489795915,25.306122448979593,-5,1.520408163265305,1.5204081632653148,0.0,0.0,0.0,0.0,0.0,70
127,17.046979865771814,5.510204081632653,25.510204081632654,-5,1.520408163265305,1.5204081632653017,0.0,0.0,0.0,0.0,0.0,70
128,17.181208053691275,5.714285714285714,25.714285714285715,-5,1.5204081632653217,1.5204081632653217,0.0,0.0,0.0,0.0,0.0,70
129,17.315436241610737,5.918367346938775,25.918367346938776,-5,1.520408163265305,1.5204081632653017,0.0,0.0,0.0,0.0,0.0,70
130,17.449664429530202,6.122448979591837,26.122448979591837,-5,1.520408163265305,1.5204081632653017,0.0,0.0,0.0,0.0,0.0,70
131,17.583892617449663,6.326530612244898,26.3265306122449,-5,1.5204081632653017,1.5204081632653017,0.0,0.0,0.0,0.0,0.0,70
132,17.71812080536913,6.530612244897959,26.53061224489796,-5,1.5204081632653017,1.5204081632653017,0.0,0.0,0.0,0.0,0.0,70
133,17.85234899328859,6.73469387755102,26.73469387755102,-5,1.5204081632653017,1.5204081632653017,0.0,0.0,0.0,0.0,0.0,70
134,17.986577181208055,6.938775510204081,26.93877551020408,-5,1.520408163265305,1.5204081632653017,0.0,0.0,0.0,0.0,0.0,70
135,18.120805369127517,7.142857142857143,27.142857142857142,-5,1.520408163265325,1.5204081632653217,0.0,0.0,0.0,0.0,0.0,70
136,18.25503355704698,7.346938775510204,27.346938775510203,-5,1.5204081632653017,1.5204081632653017,0.0,0.0,0.0,0.0,0.0,70
137,18.389261744966444,7.551020408163265,27.551020408163264,-5,1.520408163265305,1.5204081632653017,0.0,0.0,0.0,0.0,0.0,70
138,18.523489932885905,7.755102040816327,27.755102040816325,-5,1.520408163265305,1.5204081632653148,0.0,0.0,0.0,0.0,0.0,70
139,18.65771812080537,7.959183673469388,27.95918367346939,-5,1.5204081632653017,1.5204081632653017,0.0,0.0,0.0,0.0,0.0,70
140,18.79194630872483,8.16326530612245,28.163265306122447,-5,1.5204081632653017,1.5204081632653017,0.0,0.0,0.0,0.0,0.0,70
141,18.926174496644297,8.36734693877551,28.367346938775512,-5,1.5204081632653017,1.5204081632653017,0.0,0.0,0.0,0.0,0.0,70
142,19.06040268456376,8.571428571428571,28.57142857142857,-5,1.5204081632653217,1.5204081632653217,0.0,0.0,0.0,0.0,0.0,70
143,19.19463087248322,8.775510204081632,28.775510204081634,-5,1.5204081632653084,1.5204081632653148,0.0,0.0,0.0,0.0,0.0,70
144,19.328859060402685,8.979591836734695,28.979591836734695,-5,1.5204081632653084,1.5204081632653017,0.0,0.0,0.0,0.0,0.0,70
145,19.463087248322147,9.183673469387756,29.183673469387756,-5,1.5204081632653017,1.5204081632653017,0.0,0.0,0.0,0.0,0.0,70
146,19.59731543624161,9.387755102040817,29.387755102040817,-5,1.5204081632653017,1.5204081632653017,0.0,0.0,0.0,0.0,0.0,70
147,19.731543624161073,9.591836734693878,29.591836734693878,-5,1.5204081632653017,1.5204081632653017,0.0,0.0,0.0,0.0,0.0,70
148,19.86577181208054,9.795918367346939,29.79591836734694,-5,1.5204081632653017,1.5204081632653017,0.0,0.0,0.0,0.0,0.0,70
149,20.0,10.0,30.0,-5,1.5204081632653217,1.5204081632653217,0.0,0.0,0.0,0.0,0.0,70
